"Time (s)","Acceleration x (m/s^2)","Acceleration y (m/s^2)","Acceleration z (m/s^2)","Absolute acceleration (m/s^2)"
5.186923000E-3,1.580173075E-1,3.986345768E0,8.839392662E0,9.697978381E0
8.264846000E-3,1.580173075E-1,3.995922565E0,8.851364136E0,9.712827275E0
9.290961000E-3,1.675941199E-1,4.000710964E0,8.860940933E0,9.723685013E0
1.226242300E-2,1.819593310E-1,4.005499363E0,8.875306129E0,9.739003709E0
1.340219200E-2,1.915361285E-1,4.003105164E0,8.892065048E0,9.753479270E0
1.690911700E-2,2.106897533E-1,3.993528366E0,8.901641846E0,9.758682623E0
1.807261500E-2,2.250549644E-1,3.986345768E0,8.913613319E0,9.766990567E0
2.041480700E-2,2.394201756E-1,3.991134167E0,8.906430244E0,9.762733923E0
2.156823000E-2,2.394201756E-1,3.986345768E0,8.913613319E0,9.767332134E0
2.461892300E-2,2.609679997E-1,3.979163170E0,8.927978516E0,9.778069554E0
2.567050000E-2,2.801215947E-1,3.983951569E0,8.937555313E0,9.789291761E0
2.855600000E-2,2.896983922E-1,3.986345768E0,8.944737434E0,9.797101893E0
2.974953800E-2,2.992752194E-1,3.986345768E0,8.961497307E0,9.812693423E0
3.272823000E-2,3.112462163E-1,3.979163170E0,8.973467827E0,9.821086426E0
3.382092300E-2,3.208230138E-1,3.993528366E0,8.975862503E0,9.829410150E0
3.676176900E-2,3.303998411E-1,3.993528366E0,8.995016098E0,9.847220292E0
3.826103800E-2,3.687070608E-1,3.983951569E0,9.023746490E0,9.870958197E0
4.052876900E-2,3.687070608E-1,3.983951569E0,9.038111687E0,9.884092162E0
4.191480700E-2,3.758896589E-1,3.981557369E0,9.028534889E0,9.874640974E0
4.482019200E-2,3.806780577E-1,3.967192173E0,9.042900085E0,9.882184550E0
4.604784600E-2,3.926490843E-1,3.967192173E0,9.066842079E0,9.904565227E0
4.886134600E-2,3.902548850E-1,3.964797974E0,9.088389397E0,9.923242599E0
5.011430700E-2,3.998316824E-1,3.962403774E0,9.093177795E0,9.927053514E0
5.323084600E-2,3.830722570E-1,3.979163170E0,9.100360870E0,9.939670611E0
5.419961500E-2,3.950432837E-1,3.976768970E0,9.129091263E0,9.965493361E0
5.715942300E-2,3.806780577E-1,3.967192173E0,9.136273384E0,9.967698875E0
5.856523000E-2,3.806780577E-1,3.964797974E0,9.155426979E0,9.984306782E0
6.116688400E-2,3.567360640E-1,3.964797974E0,9.172186852E0,9.998794689E0
6.231250000E-2,3.495534360E-1,3.971980572E0,9.193734169E0,1.002115588E1
6.534353800E-2,3.447650373E-1,3.983951569E0,9.203310966E0,1.003452369E1
6.641430700E-2,3.447650373E-1,3.957615376E0,9.215282440E0,1.003508908E1
6.934407600E-2,3.303998411E-1,3.971980572E0,9.217676163E0,1.004247716E1
7.048292300E-2,3.232172430E-1,3.976768970E0,9.203310966E0,1.003095676E1
7.350250000E-2,3.016694188E-1,3.979163170E0,9.186552048E0,1.001586155E1
7.457996100E-2,3.040636182E-1,3.971980572E0,9.169792175E0,9.997708382E0
7.753276900E-2,2.849099934E-1,3.983951569E0,9.126696587E0,9.962411073E0
7.898576900E-2,2.777273953E-1,3.991134167E0,9.102754593E0,9.943159740E0
8.137557600E-2,2.418143749E-1,3.998316765E0,9.062053680E0,9.907866978E0
8.267530700E-2,2.154781520E-1,4.007893562E0,9.009381294E0,9.862991075E0
8.536907600E-2,2.059013397E-1,4.000710964E0,8.992621422E0,9.844558071E0
8.677430700E-2,2.011129409E-1,3.998316765E0,8.963891029E0,9.817246343E0
8.971223000E-2,1.747767180E-1,3.979163170E0,8.925583839E0,9.773962007E0
9.089580700E-2,1.819593310E-1,3.995922565E0,8.894459724E0,9.752534037E0
9.386184600E-2,1.843535304E-1,3.998316765E0,8.882488251E0,9.742644441E0
9.499011500E-2,1.580173075E-1,3.986345768E0,8.848969460E0,9.706708121E0
9.792469200E-2,1.580173075E-1,3.981557369E0,8.827422142E0,9.685099392E0
9.936723000E-2,1.723825186E-1,3.976768970E0,8.801085472E0,9.659374341E0
1.019448460E-1,1.675941199E-1,3.988739967E0,8.796297073E0,9.659864208E0
1.030820380E-1,1.699883193E-1,3.991134167E0,8.789113998E0,9.654355123E0
1.061008070E-1,1.843535304E-1,3.971980572E0,8.762778282E0,9.622728257E0
1.071690380E-1,1.963245422E-1,3.971980572E0,8.750806808E0,9.612064960E0
1.101229610E-1,2.011129409E-1,3.950432777E0,8.736441612E0,9.590191739E0
1.112887300E-1,2.202665508E-1,3.945644379E0,8.726864815E0,9.579916305E0
1.142701920E-1,2.298433632E-1,3.943250179E0,8.726864815E0,9.579155466E0
1.153604990E-1,2.322375625E-1,3.928884983E0,8.717288017E0,9.564579545E0
1.182957300E-1,2.513911724E-1,3.919308186E0,8.724471092E0,9.567683628E0
1.197866150E-1,2.513911724E-1,3.931279182E0,8.750806808E0,9.596602176E0
1.220662690E-1,2.561795712E-1,3.936067581E0,8.748413086E0,9.596509131E0
1.234630760E-1,2.633621991E-1,3.940855980E0,8.760383606E0,9.609579930E0
1.264684990E-1,2.729389966E-1,3.931279182E0,8.765172005E0,9.610290941E0
1.275922300E-1,2.825157940E-1,3.931279182E0,8.772355080E0,9.617119362E0
1.304448460E-1,3.040636182E-1,3.928884983E0,8.813055992E0,9.653939497E0
1.316885380E-1,3.112462163E-1,3.928884983E0,8.848969460E0,9.686964019E0
1.346416150E-1,2.944868207E-1,3.938461781E0,8.853757858E0,9.694701228E0
1.357488460E-1,3.088520169E-1,3.936067581E0,8.868123055E0,9.707297465E0
1.386952690E-1,3.208230138E-1,3.924096584E0,8.901641846E0,9.733482879E0
1.401154610E-1,3.399766386E-1,3.924096584E0,8.923190117E0,9.753842319E0
1.427321150E-1,3.495534360E-1,3.924096584E0,8.944737434E0,9.773896325E0
1.438540760E-1,3.495534360E-1,3.926490784E0,8.963891029E0,9.792387853E0
1.468678460E-1,3.423708379E-1,3.931279182E0,8.983044624E0,9.811588277E0
1.479350760E-1,3.734954596E-1,3.940855980E0,8.995016098E0,9.827520507E0
1.508769990E-1,3.758896589E-1,3.950432777E0,9.009381294E0,9.844600727E0
1.520464990E-1,3.591302633E-1,3.950432777E0,9.035717010E0,9.868083683E0
1.550888460E-1,3.567360640E-1,3.957615376E0,9.042900085E0,9.877450179E0
1.561286150E-1,3.375824392E-1,3.950432777E0,9.045293808E0,9.876093413E0
1.590727690E-1,3.232172430E-1,3.967192173E0,9.052476883E0,9.888903925E0
1.605363840E-1,3.303998411E-1,3.967192173E0,9.064447403E0,9.900100227E0
1.629323840E-1,3.399766386E-1,3.948038578E0,9.066842079E0,9.894959223E0
1.642435380E-1,3.423708379E-1,3.943250179E0,9.062053680E0,9.888743938E0
1.669358460E-1,3.351882398E-1,3.945644379E0,9.062053680E0,9.889452848E0
1.683758840E-1,3.280056417E-1,3.945644379E0,9.054870605E0,9.882630163E0
1.712748460E-1,3.088520169E-1,3.955221176E0,9.069235802E0,9.899000058E0
1.724260380E-1,3.160346150E-1,3.964797974E0,9.081207275E0,9.914021708E0
1.754165760E-1,3.184288144E-1,3.986345768E0,9.059659004E0,9.903018265E0
1.765496920E-1,3.327940404E-1,3.988739967E0,9.054870605E0,9.900074751E0
1.795107690E-1,3.399766386E-1,3.991134167E0,9.057265282E0,9.903473655E0
1.809341530E-1,3.591302633E-1,3.986345768E0,9.033323288E0,9.880326753E0
1.834864990E-1,3.758896589E-1,3.986345768E0,9.035717010E0,9.883138546E0
1.846309610E-1,3.806780577E-1,3.991134167E0,9.038111687E0,9.887443076E0
1.877167300E-1,3.854664862E-1,4.005499363E0,9.033323288E0,9.889061593E0
1.887313070E-1,3.902548850E-1,4.012681961E0,9.023746490E0,9.883416217E0
1.916473840E-1,3.615244627E-1,4.012681961E0,9.018958092E0,9.877951281E0
1.928119610E-1,3.591302633E-1,4.015076160E0,9.006986618E0,9.867908545E0
1.958518840E-1,3.950432837E-1,4.036623955E0,9.004592896E0,9.875884029E0
1.968977690E-1,3.734954596E-1,4.039018154E0,8.992621422E0,9.865110569E0
1.998422690E-1,3.687070608E-1,4.048594952E0,8.966285706E0,9.844863906E0
2.013384230E-1,3.663128614E-1,4.060565948E0,8.961497307E0,9.845344835E0
2.036051150E-1,3.854664862E-1,4.065354347E0,8.956708908E0,9.843694674E0
2.049978070E-1,3.758896589E-1,4.094084740E0,8.930372238E0,9.831295500E0
2.079932300E-1,3.687070608E-1,4.098873138E0,8.923190117E0,9.826496210E0
2.091162690E-1,3.806780577E-1,4.096478939E0,8.899248123E0,9.804217084E0
2.119688070E-1,3.806780577E-1,4.122815132E0,8.884882927E0,9.802227554E0
2.132025760E-1,3.543418646E-1,4.129997730E0,8.887276649E0,9.806432871E0
2.162523070E-1,3.423708379E-1,4.129997730E0,8.887276649E0,9.806007612E0
2.174223070E-1,3.543418646E-1,4.118026733E0,8.882488251E0,9.797055673E0
2.202315380E-1,3.256114423E-1,4.115632534E0,8.870517731E0,9.784198423E0
2.216622690E-1,3.280056417E-1,4.115632534E0,8.860940933E0,9.775596814E0
2.242803460E-1,3.303998411E-1,4.134786129E0,8.858546257E0,9.781587917E0
2.254083070E-1,3.423708379E-1,4.141968727E0,8.860940933E0,9.787205778E0
2.284354990E-1,3.280056417E-1,4.129997730E0,8.860940933E0,9.781653397E0
2.294766920E-1,3.280056417E-1,4.129997730E0,8.853757858E0,9.775146913E0
2.324133070E-1,3.208230138E-1,4.125209332E0,8.858546257E0,9.777224618E0
2.335766530E-1,3.184288144E-1,4.127603531E0,8.853757858E0,9.773818907E0
2.365942690E-1,3.184288144E-1,4.132391930E0,8.853757858E0,9.775842070E0
2.377008460E-1,3.208230138E-1,4.127603531E0,8.865729332E0,9.784742966E0
2.406714220E-1,3.064578176E-1,4.113238335E0,8.863334656E0,9.776059902E0
2.420967300E-1,2.968810201E-1,4.101267338E0,8.860940933E0,9.768562143E0
2.444884990E-1,2.992752194E-1,4.103661537E0,8.868123055E0,9.776155184E0
2.458701150E-1,2.992752194E-1,4.106055737E0,8.863334656E0,9.772817434E0
2.485021920E-1,2.944868207E-1,4.096478939E0,8.875306129E0,9.779515380E0
2.498951150E-1,2.944868207E-1,4.094084740E0,8.887276649E0,9.789378866E0
2.529040380E-1,2.801215947E-1,4.094084740E0,8.904036522E0,9.804175863E0
2.539895760E-1,2.729389966E-1,4.077325344E0,8.904036522E0,9.796986478E0
2.569699990E-1,2.561795712E-1,4.058171749E0,8.911218643E0,9.795111210E0
2.580877690E-1,2.561795712E-1,4.065354347E0,8.923190117E0,9.808978326E0
2.615919620E-1,2.466027737E-1,4.065354347E0,8.927978516E0,9.813089181E0
2.627259220E-1,2.466027737E-1,4.048594952E0,8.937555313E0,9.814877940E0
2.651003840E-1,2.418143749E-1,4.036623955E0,8.937555313E0,9.809826814E0
2.662141530E-1,2.370259613E-1,4.050989151E0,8.935160637E0,9.813449445E0
2.692612300E-1,2.226607651E-1,4.050989151E0,8.935160637E0,9.813112988E0
2.703087300E-1,1.987187415E-1,4.050989151E0,8.956708908E0,9.832224403E0
2.732598840E-1,2.082955539E-1,4.041412354E0,8.954314232E0,9.826298602E0
2.744109990E-1,2.011129409E-1,4.031835556E0,8.954314232E0,9.822213993E0
2.774308840E-1,2.178723514E-1,4.024652958E0,8.968679428E0,9.832726503E0
2.785000760E-1,2.202665508E-1,4.022258759E0,8.987833023E0,9.849275371E0
2.814354220E-1,2.035071403E-1,4.024652958E0,8.997409821E0,9.858632261E0
2.829055380E-1,2.035071403E-1,4.019864559E0,9.002198219E0,9.861049590E0
2.852422300E-1,1.915361285E-1,4.029441357E0,9.009381294E0,9.871273223E0
2.866319610E-1,1.939303428E-1,4.027047157E0,9.014169693E0,9.874713821E0
2.895759220E-1,1.939303428E-1,4.029441357E0,9.035717010E0,9.895361970E0
2.908093070E-1,2.011129409E-1,4.005499363E0,9.033323288E0,9.883592524E0
2.935588070E-1,2.059013397E-1,3.998316765E0,9.030928612E0,9.878593215E0
2.948068070E-1,1.891419291E-1,4.000710964E0,9.033323288E0,9.881416524E0
2.978437690E-1,1.987187415E-1,4.015076160E0,9.026140213E0,9.880867009E0
2.988932690E-1,1.915361285E-1,4.010287762E0,9.028534889E0,9.880968387E0
3.018495380E-1,1.939303428E-1,4.007893562E0,9.016563416E0,9.869105107E0
3.032701150E-1,1.987187415E-1,4.005499363E0,8.992621422E0,9.846357414E0
3.058661150E-1,1.819593310E-1,4.022258759E0,9.016563416E0,9.874719770E0
3.069812300E-1,1.867477298E-1,4.015076160E0,9.014169693E0,9.869699415E0
3.100111920E-1,1.819593310E-1,4.029441357E0,9.018958092E0,9.879833597E0
3.110786150E-1,1.867477298E-1,4.022258759E0,9.002198219E0,9.861694226E0
3.140511530E-1,1.963245422E-1,4.024652958E0,8.980650902E0,9.843193861E0
3.151922690E-1,2.011129409E-1,4.022258759E0,8.966285706E0,9.829206036E0
3.182088460E-1,2.011129409E-1,4.017470360E0,8.956708908E0,9.818510527E0
3.192780760E-1,1.987187415E-1,4.034229755E0,8.951920509E0,9.820966330E0
3.222581920E-1,2.274491638E-1,4.012681961E0,8.942343712E0,9.804022680E0
3.237445380E-1,2.442085743E-1,4.012681961E0,8.937555313E0,9.800058639E0
3.261007690E-1,2.513911724E-1,4.010287762E0,8.944737434E0,9.805811197E0
3.273878070E-1,2.585737705E-1,4.015076160E0,8.932766914E0,9.797041478E0
3.300722690E-1,2.489969730E-1,4.019864559E0,8.913613319E0,9.781299146E0
3.314890760E-1,2.585737705E-1,4.015076160E0,8.908824921E0,9.775216542E0
3.344108840E-1,2.585737705E-1,4.019864559E0,8.896853447E0,9.766277322E0
3.355972690E-1,2.777273953E-1,4.031835556E0,8.894459724E0,9.769557014E0
3.385502300E-1,2.801215947E-1,4.022258759E0,8.875306129E0,9.748235354E0
3.396849220E-1,2.896983922E-1,4.029441357E0,8.858546257E0,9.736229485E0
3.426244220E-1,2.825157940E-1,4.019864559E0,8.846575737E0,9.721163949E0
3.440698840E-1,2.873041928E-1,4.017470360E0,8.841787338E0,9.715956727E0
3.466363840E-1,3.016694188E-1,4.027047157E0,8.829815865E0,9.709467619E0
3.477741920E-1,3.184288144E-1,4.024652958E0,8.841787338E0,9.719898748E0
3.508274610E-1,3.064578176E-1,4.036623955E0,8.844181061E0,9.726653483E0
3.518838450E-1,3.088520169E-1,4.036623955E0,8.860940933E0,9.741970886E0
3.548340380E-1,3.064578176E-1,4.034229755E0,8.865729332E0,9.745259499E0
3.559646530E-1,3.112462163E-1,4.041412354E0,8.863334656E0,9.746208968E0
3.590016530E-1,3.112462163E-1,4.046200752E0,8.870517731E0,9.754727036E0
3.600680380E-1,2.992752194E-1,4.029441357E0,8.875306129E0,9.751770208E0
3.630029220E-1,3.160346150E-1,4.017470360E0,8.884882927E0,9.756079673E0
3.644943070E-1,3.351882398E-1,4.022258759E0,8.887276649E0,9.760871012E0
3.667866150E-1,3.351882398E-1,4.024652958E0,8.892065048E0,9.766217457E0
3.682347300E-1,3.303998411E-1,4.012681961E0,8.899248123E0,9.767671050E0
3.710818450E-1,3.471592367E-1,4.015076160E0,8.892065048E0,9.762693119E0
3.722647300E-1,3.471592367E-1,4.005499363E0,8.896853447E0,9.763121731E0
3.751076920E-1,3.208230138E-1,4.007893562E0,8.901641846E0,9.767567034E0
3.763537300E-1,3.112462163E-1,4.022258759E0,8.899248123E0,9.770980344E0
3.794111150E-1,3.160346150E-1,4.029441357E0,8.913613319E0,9.787174155E0
3.804696920E-1,3.040636182E-1,4.036623955E0,8.906430244E0,9.783214571E0
3.834105760E-1,3.112462163E-1,4.015076160E0,8.896853447E0,9.765844154E0
3.848318840E-1,3.088520169E-1,4.019864559E0,8.904036522E0,9.774280896E0
3.875704610E-1,3.040636182E-1,4.024652958E0,8.911218643E0,9.782642988E0
3.885470380E-1,3.016694188E-1,4.022258759E0,8.930372238E0,9.799036599E0
3.915805380E-1,3.088520169E-1,4.000710964E0,8.930372238E0,9.790435440E0
3.926623840E-1,2.920926213E-1,4.003105164E0,8.927978516E0,9.788716434E0
3.956275380E-1,2.968810201E-1,3.995922565E0,8.930372238E0,9.788109307E0
3.967639610E-1,3.064578176E-1,3.976768970E0,8.935160637E0,9.784973349E0
3.997904610E-1,3.088520169E-1,3.971980572E0,8.942343712E0,9.789664463E0
4.008609220E-1,2.968810201E-1,3.981557369E0,8.942343712E0,9.793183777E0
4.038164220E-1,2.944868207E-1,3.969586372E0,8.961497307E0,9.805752008E0
4.052846920E-1,2.968810201E-1,3.967192173E0,8.966285706E0,9.809231949E0
4.078269610E-1,2.849099934E-1,3.952826977E0,8.975862503E0,9.811835837E0
4.089793450E-1,2.825157940E-1,3.950432777E0,8.973467827E0,9.808611479E0
4.116719990E-1,2.801215947E-1,3.957615376E0,8.990227699E0,9.826768627E0
4.130995760E-1,2.849099934E-1,3.950432777E0,8.990227699E0,9.824015824E0
4.160426920E-1,2.777273953E-1,3.952826977E0,8.990227699E0,9.824773163E0
4.171530380E-1,2.753331959E-1,3.955221176E0,8.985439301E0,9.821288222E0
4.202011530E-1,2.657563984E-1,3.950432777E0,8.995016098E0,9.827861425E0
4.212562300E-1,2.585737705E-1,3.938461781E0,8.999804497E0,9.827248983E0
4.242024610E-1,2.561795712E-1,3.940855980E0,8.999804497E0,9.828146051E0
4.256480760E-1,2.346317619E-1,3.938461781E0,8.990227699E0,9.817877945E0
4.282322300E-1,2.633621991E-1,3.931279182E0,8.997409821E0,9.822306203E0
4.293678450E-1,2.609679997E-1,3.928884983E0,9.002198219E0,9.825671188E0
4.323927690E-1,2.442085743E-1,3.928884983E0,8.999804497E0,9.823047186E0
4.334354610E-1,2.370259613E-1,3.931279182E0,8.983044624E0,9.808477356E0
4.363921530E-1,2.346317619E-1,3.924096584E0,8.997409821E0,9.818705085E0
4.375351920E-1,2.298433632E-1,3.919308186E0,9.006986618E0,9.825457372E0
4.405779220E-1,2.394201756E-1,3.916913986E0,8.995016098E0,9.813758291E0
4.416333840E-1,2.513911724E-1,3.928884983E0,8.987833023E0,9.812261573E0
4.445713450E-1,2.442085743E-1,3.938461781E0,8.995016098E0,9.822496303E0
4.460450760E-1,2.202665508E-1,3.912125587E0,8.990227699E0,9.807009639E0
4.483623450E-1,2.418143749E-1,3.919308186E0,9.004592896E0,9.823550481E0
4.497426150E-1,2.298433632E-1,3.909731388E0,9.009381294E0,9.823837275E0
4.526990760E-1,2.178723514E-1,3.919308186E0,9.009381294E0,9.827379932E0
4.538359610E-1,2.370259613E-1,3.921702385E0,9.006986618E0,9.826583274E0
4.567236530E-1,2.537853718E-1,3.933673382E0,9.016563416E0,9.840559390E0
4.579673070E-1,2.513911724E-1,3.928884983E0,9.023746490E0,9.845168127E0
4.609157300E-1,2.322375625E-1,3.924096584E0,9.021351814E0,9.840592302E0
4.620274220E-1,2.250549644E-1,3.943250179E0,9.030928612E0,9.856852606E0
4.649770380E-1,2.418143749E-1,3.955221176E0,9.033323288E0,9.864237344E0
4.663899610E-1,2.466027737E-1,3.957615376E0,9.026140213E0,9.858739247E0
4.690021150E-1,2.537853718E-1,3.957615376E0,9.018958092E0,9.852346499E0
4.701148450E-1,2.346317619E-1,3.964797974E0,9.026140213E0,9.861332678E0
4.731595760E-1,2.418143749E-1,3.969586372E0,9.028534889E0,9.865623772E0
4.742148070E-1,2.489969730E-1,3.974374771E0,9.040505409E0,9.878683737E0
4.771557300E-1,2.418143749E-1,3.991134167E0,9.038111687E0,9.883070828E0
4.783157300E-1,2.442085743E-1,3.986345768E0,9.047688484E0,9.889957397E0
4.813609220E-1,2.489969730E-1,3.991134167E0,9.052476883E0,9.896387682E0
4.824146530E-1,2.609679997E-1,4.000710964E0,9.045293808E0,9.893994774E0
4.854247680E-1,2.537853718E-1,4.003105164E0,9.038111687E0,9.888211205E0
4.868258070E-1,2.370259613E-1,4.000710964E0,9.023746490E0,9.873695876E0
4.892312300E-1,2.346317619E-1,4.003105164E0,9.014169693E0,9.865858212E0
4.905959610E-1,2.513911724E-1,4.012681961E0,9.028534889E0,9.883281656E0
4.932110760E-1,2.442085743E-1,4.022258759E0,9.035717010E0,9.893552711E0
4.946057300E-1,2.442085743E-1,4.003105164E0,9.033323288E0,9.883593395E0
4.975562300E-1,2.394201756E-1,3.998316765E0,9.035717010E0,9.883726062E0
4.987381150E-1,2.226607651E-1,4.005499363E0,9.033323288E0,9.884054461E0
5.016756150E-1,2.250549644E-1,4.003105164E0,9.021351814E0,9.872197792E0
5.027977680E-1,2.250549644E-1,4.015076160E0,9.023746490E0,9.879245266E0
5.063271150E-1,2.250549644E-1,3.993528366E0,9.023746490E0,9.870507549E0
5.074506150E-1,2.250549644E-1,4.003105164E0,9.006986618E0,9.859072402E0
5.098616150E-1,2.059013397E-1,4.003105164E0,8.992621422E0,9.845531288E0
5.110159220E-1,2.011129409E-1,3.995922565E0,8.992621422E0,9.842514089E0
5.140328840E-1,2.035071403E-1,3.983951569E0,8.997409821E0,9.842086605E0
5.150592680E-1,2.035071403E-1,3.979163170E0,9.004592896E0,9.846717621E0
5.180005380E-1,1.987187415E-1,3.957615376E0,8.999804497E0,9.833549185E0
5.191706150E-1,1.939303428E-1,3.976768970E0,8.997409821E0,9.838987951E0
5.221728450E-1,2.106897533E-1,3.976768970E0,8.999804497E0,9.841522372E0
5.232616150E-1,2.011129409E-1,3.960009575E0,8.999804497E0,9.834561669E0
5.262019990E-1,1.867477298E-1,3.950432777E0,9.002198219E0,9.832617486E0
5.276835380E-1,2.011129409E-1,3.945644379E0,8.987833023E0,9.817825545E0
5.299848840E-1,1.819593310E-1,3.948038578E0,8.987833023E0,9.818414346E0
5.313915380E-1,1.795651317E-1,3.933673382E0,8.992621422E0,9.816988843E0
5.343154990E-1,1.795651317E-1,3.924096584E0,8.985439301E0,9.806574176E0
5.354803840E-1,1.771709323E-1,3.933673382E0,8.990227699E0,9.814752666E0
5.382962680E-1,1.795651317E-1,3.928884983E0,8.997409821E0,9.819458454E0
5.395670380E-1,1.819593310E-1,3.921702385E0,8.997409821E0,9.816630902E0
5.427451150E-1,1.915361285E-1,3.926490784E0,8.990227699E0,9.812146047E0
5.436526530E-1,1.843535304E-1,3.916913986E0,8.990227699E0,9.808180029E0
5.465893840E-1,1.867477298E-1,3.912125587E0,8.992621422E0,9.808508621E0
5.480159610E-1,2.082955539E-1,3.919308186E0,8.992621422E0,9.811809401E0
5.506845380E-1,2.035071403E-1,3.916913986E0,8.992621422E0,9.810752793E0
5.517459990E-1,2.082955539E-1,3.909731388E0,8.985439301E0,9.801403266E0
5.547804990E-1,2.154781520E-1,3.912125587E0,8.987833023E0,9.804708047E0
5.558504220E-1,2.011129409E-1,3.897760391E0,8.975862503E0,9.787700964E0
5.587951150E-1,2.059013397E-1,3.902548790E0,8.990227699E0,9.802881031E0
5.599383070E-1,2.130839527E-1,3.904942989E0,8.999804497E0,9.812770531E0
5.629493840E-1,1.987187415E-1,3.902548790E0,8.990227699E0,9.802732797E0
5.640431150E-1,1.987187415E-1,3.890577793E0,8.990227699E0,9.797973198E0
5.669982300E-1,1.939303428E-1,3.883395195E0,8.999804497E0,9.803818042E0
5.684583840E-1,2.082955539E-1,3.892971992E0,9.002198219E0,9.810106562E0
5.708879610E-1,1.891419291E-1,3.892971992E0,9.006986618E0,9.814112978E0
5.721627680E-1,1.915361285E-1,3.909731388E0,9.009381294E0,9.823015673E0
5.748521530E-1,2.035071403E-1,3.909731388E0,9.011775017E0,9.825451829E0
5.762593450E-1,2.154781520E-1,3.897760391E0,9.011775017E0,9.820949845E0
5.792765380E-1,1.963245422E-1,3.904942989E0,9.016563416E0,9.827794203E0
5.803567680E-1,1.867477298E-1,3.895366192E0,9.009381294E0,9.817214665E0
5.833448450E-1,1.963245422E-1,3.881000996E0,8.995016098E0,9.798521657E0
5.844760760E-1,1.987187415E-1,3.878606796E0,9.002198219E0,9.804216062E0
5.874808450E-1,2.154781520E-1,3.864241600E0,8.987833023E0,9.785700610E0
5.888668840E-1,2.202665508E-1,3.873818398E0,8.983044624E0,9.785196833E0
5.914194220E-1,2.250549644E-1,3.890577793E0,8.961497307E0,9.772189073E0
5.925379220E-1,2.178723514E-1,3.866635799E0,8.980650902E0,9.780103854E0
5.955755380E-1,2.154781520E-1,3.859453201E0,8.975862503E0,9.772815230E0
5.966312300E-1,2.130839527E-1,3.866635799E0,8.980650902E0,9.779998354E0
5.995721910E-1,2.154781520E-1,3.873818398E0,8.975862503E0,9.778497200E0
6.007421530E-1,2.202665508E-1,3.883395195E0,8.985439301E0,9.791189663E0
6.037674610E-1,2.202665508E-1,3.878606796E0,8.987833023E0,9.791488676E0
6.048458840E-1,2.130839527E-1,3.873818398E0,8.990227699E0,9.791632542E0
6.078037300E-1,2.346317619E-1,3.871424198E0,8.978256226E0,9.780187229E0
6.092640380E-1,2.226607651E-1,3.866635799E0,8.978256226E0,9.778012839E0
6.115670760E-1,2.250549644E-1,3.854664803E0,8.973467827E0,9.768941361E0
6.129605760E-1,2.322375625E-1,3.849876404E0,8.971074104E0,9.765021925E0
6.159032300E-1,2.226607651E-1,3.861847401E0,8.980650902E0,9.778319579E0
6.170369990E-1,2.466027737E-1,3.857059002E0,8.983044624E0,9.779202820E0
6.199076910E-1,2.825157940E-1,3.854664803E0,8.990227699E0,9.785829040E0
6.211556150E-1,2.801215947E-1,3.852270603E0,8.963891029E0,9.760624944E0
6.241156150E-1,2.753331959E-1,3.854664803E0,8.978256226E0,9.774627050E0
6.252449220E-1,2.825157940E-1,3.849876404E0,8.978256226E0,9.772944712E0
6.281858840E-1,2.849099934E-1,3.854664803E0,8.968679428E0,9.766105935E0
6.296006530E-1,3.016694188E-1,3.849876404E0,8.973467827E0,9.769118568E0
6.322310380E-1,3.064578176E-1,3.845088005E0,8.971074104E0,9.765182474E0
6.333468070E-1,3.016694188E-1,3.835511208E0,8.980650902E0,9.770068643E0
6.363843070E-1,3.160346150E-1,3.854664803E0,8.978256226E0,9.775858196E0
6.374931530E-1,3.184288144E-1,3.857059002E0,8.980650902E0,9.779079286E0
6.404006150E-1,3.280056417E-1,3.837905407E0,8.978256226E0,9.769656620E0
6.416105380E-1,3.375824392E-1,3.847482204E0,8.978256226E0,9.773748824E0
6.445639610E-1,3.495534360E-1,3.840299606E0,8.975862503E0,9.769145118E0
6.456350380E-1,3.327940404E-1,3.825934410E0,8.987833023E0,9.773927994E0
6.485871910E-1,3.160346150E-1,3.833117008E0,8.997409821E0,9.784990923E0
6.501297680E-1,3.112462163E-1,3.845088005E0,8.987833023E0,9.780731998E0
6.524445760E-1,3.232172430E-1,3.837905407E0,8.985439301E0,9.776098748E0
6.537465380E-1,3.375824392E-1,3.830722809E0,8.987833023E0,9.775967553E0
6.564300380E-1,3.375824392E-1,3.828328609E0,8.980650902E0,9.768426304E0
6.578649610E-1,3.447650373E-1,3.847482204E0,8.987833023E0,9.782797386E0
6.607693450E-1,3.280056417E-1,3.842693806E0,8.990227699E0,9.782539418E0
6.619268450E-1,3.327940404E-1,3.849876404E0,8.990227699E0,9.785524732E0
6.648966140E-1,3.423708379E-1,3.861847401E0,8.992621422E0,9.792768923E0
6.660233840E-1,3.208230138E-1,3.857059002E0,8.983044624E0,9.781355850E0
6.689914610E-1,3.208230138E-1,3.852270603E0,8.978256226E0,9.775070386E0
6.704242680E-1,3.256114423E-1,3.854664803E0,8.978256226E0,9.776172482E0
6.730043070E-1,3.064578176E-1,3.845088005E0,8.978256226E0,9.771780954E0
6.741123840E-1,3.064578176E-1,3.842693806E0,8.975862503E0,9.768639606E0
6.772159220E-1,3.184288144E-1,3.871424198E0,8.966285706E0,9.771571091E0
6.782151140E-1,3.136404157E-1,3.871424198E0,8.980650902E0,9.784599443E0
6.811463840E-1,3.088520169E-1,3.861847401E0,8.963891029E0,9.765275076E0
6.823088450E-1,3.040636182E-1,3.857059002E0,8.956708908E0,9.756638422E0
6.853543840E-1,3.064578176E-1,3.849876404E0,8.959102631E0,9.756074245E0
6.864049610E-1,3.184288144E-1,3.859453201E0,8.961497307E0,9.762438727E0
6.895201910E-1,3.208230138E-1,3.864241600E0,8.961497307E0,9.764411120E0
6.908260760E-1,3.136404157E-1,3.859453201E0,8.961497307E0,9.762283714E0
6.931223450E-1,3.064578176E-1,3.859453201E0,8.949525833E0,9.751067021E0
6.945163070E-1,3.160346150E-1,3.864241600E0,8.954314232E0,9.757662855E0
6.974499220E-1,3.303998411E-1,3.881000996E0,8.947132111E0,9.758201975E0
6.986219990E-1,3.280056417E-1,3.878606796E0,8.963891029E0,9.772539116E0
7.014573450E-1,3.184288144E-1,3.885789394E0,8.963891029E0,9.775075371E0
7.027047300E-1,3.064578176E-1,3.869029999E0,8.963891029E0,9.768042379E0
7.057650380E-1,3.184288144E-1,3.861847401E0,8.949525833E0,9.752398418E0
7.068051910E-1,3.184288144E-1,3.861847401E0,8.956708908E0,9.758990558E0
7.097396530E-1,3.256114423E-1,3.885789394E0,8.963891029E0,9.775311986E0
7.111708450E-1,3.232172430E-1,3.890577793E0,8.966285706E0,9.779332508E0
7.137687300E-1,3.088520169E-1,3.878606796E0,8.971074104E0,9.778504529E0
7.148960760E-1,3.112462163E-1,3.885789394E0,8.966285706E0,9.777040083E0
7.179390380E-1,3.064578176E-1,3.881000996E0,8.959102631E0,9.768398286E0
7.189958070E-1,3.136404157E-1,3.878606796E0,8.961497307E0,9.769871799E0
7.219258070E-1,3.136404157E-1,3.871424198E0,8.954314232E0,9.760432316E0
7.230908450E-1,3.136404157E-1,3.873818398E0,8.956708908E0,9.763578942E0
7.260976530E-1,3.208230138E-1,3.881000996E0,8.949525833E0,9.760077293E0
7.271870380E-1,3.280056417E-1,3.890577793E0,8.949525833E0,9.764128016E0
7.301268070E-1,3.208230138E-1,3.895366192E0,8.944737434E0,9.761410397E0
7.316306530E-1,3.184288144E-1,3.895366192E0,8.947132111E0,9.763526396E0
7.340001140E-1,2.968810201E-1,3.895366192E0,8.966285706E0,9.780403645E0
7.352931140E-1,2.968810201E-1,3.897760391E0,8.961497307E0,9.776968262E0
7.380605760E-1,3.088520169E-1,3.892971992E0,8.949525833E0,9.764457647E0
7.393893840E-1,3.088520169E-1,3.895366192E0,8.947132111E0,9.763218749E0
7.423360380E-1,3.064578176E-1,3.909731388E0,8.973467827E0,9.793009791E0
7.434835760E-1,3.064578176E-1,3.900154591E0,8.978256226E0,9.793579891E0
7.464716140E-1,2.944868207E-1,3.895366192E0,8.978256226E0,9.791306609E0
7.475862300E-1,2.896983922E-1,3.883395195E0,8.956708908E0,9.766643122E0
7.511139220E-1,2.873041928E-1,3.873818398E0,8.954314232E0,9.760571502E0
7.522453840E-1,2.968810201E-1,3.904942989E0,8.966285706E0,9.784221862E0
7.545908070E-1,2.968810201E-1,3.897760391E0,8.966285706E0,9.781357460E0
7.557213840E-1,2.825157940E-1,3.885789394E0,8.961497307E0,9.771776111E0
7.587411140E-1,2.777273953E-1,3.890577793E0,8.968679428E0,9.780129792E0
7.598189610E-1,2.801215947E-1,3.892971992E0,8.968679428E0,9.781150736E0
7.627481530E-1,2.849099934E-1,3.878606796E0,8.985439301E0,9.790959289E0
7.639110760E-1,2.849099934E-1,3.895366192E0,9.002198219E0,9.812982434E0
7.669229990E-1,2.825157940E-1,3.888183594E0,9.002198219E0,9.810064200E0
7.680094610E-1,2.801215947E-1,3.897760391E0,8.999804497E0,9.811599521E0
7.709498070E-1,2.992752194E-1,3.890577793E0,9.006986618E0,9.815903889E0
7.724357300E-1,2.873041928E-1,3.892971992E0,9.011775017E0,9.820889144E0
7.747543450E-1,2.920926213E-1,3.904942989E0,9.016563416E0,9.830173634E0
7.761215370E-1,2.801215947E-1,3.902548790E0,9.030928612E0,9.842053991E0
7.790223070E-1,2.705447972E-1,3.900154591E0,9.052476883E0,9.860615500E0
7.802426140E-1,2.825157940E-1,3.904942989E0,9.059659004E0,9.869438494E0
7.830845370E-1,2.896983922E-1,3.890577793E0,9.062053680E0,9.866171376E0
7.843277680E-1,2.896983922E-1,3.878606796E0,9.064447403E0,9.863656653E0
7.875017300E-1,2.729389966E-1,3.890577793E0,9.066842079E0,9.870092023E0
7.884102680E-1,2.561795712E-1,3.912125587E0,9.057265282E0,9.869367202E0
7.913537300E-1,2.489969730E-1,3.907337189E0,9.059659004E0,9.869483506E0
7.927760760E-1,2.609679997E-1,3.890577793E0,9.064447403E0,9.867568423E0
7.953739610E-1,2.753331959E-1,3.902548790E0,9.062053680E0,9.870486935E0
7.965046910E-1,2.705447972E-1,3.912125587E0,9.064447403E0,9.876341824E0
7.995235370E-1,2.753331959E-1,3.890577793E0,9.057265282E0,9.861361890E0
8.006000370E-1,2.729389966E-1,3.904942989E0,9.057265282E0,9.866971665E0
8.035401910E-1,2.585737705E-1,3.907337189E0,9.057265282E0,9.867532553E0
8.046966530E-1,2.489969730E-1,3.904942989E0,9.052476883E0,9.861942859E0
8.077328070E-1,2.537853718E-1,3.912125587E0,9.038111687E0,9.851730634E0
8.087981140E-1,2.442085743E-1,3.900154591E0,9.028534889E0,9.837951306E0
8.117307680E-1,2.561795712E-1,3.900154591E0,9.016563416E0,9.827270711E0
8.132009220E-1,2.705447972E-1,3.892971992E0,9.004592896E0,9.813822835E0
8.156113840E-1,2.633621991E-1,3.888183594E0,9.002198219E0,9.809531288E0
8.169956530E-1,2.537853718E-1,3.892971992E0,8.973467827E0,9.784823084E0
8.195935760E-1,2.394201756E-1,3.904942989E0,8.978256226E0,9.793619690E0
8.210167680E-1,2.298433632E-1,3.897760391E0,8.959102631E0,9.772967000E0
8.239768450E-1,2.250549644E-1,3.888183594E0,8.949525833E0,9.760257888E0
8.251108070E-1,2.106897533E-1,3.885789394E0,8.944737434E0,9.754592619E0
8.280713070E-1,2.106897533E-1,3.892971992E0,8.916007042E0,9.731125458E0
8.292023070E-1,2.178723514E-1,3.885789394E0,8.916007042E0,9.728412468E0
8.321397300E-1,2.274491638E-1,3.878606796E0,8.916007042E0,9.725765028E0
8.335894990E-1,2.226607651E-1,3.873818398E0,8.916007042E0,9.723745593E0
8.361650370E-1,2.322375625E-1,3.866635799E0,8.906430244E0,9.712327547E0
8.372951140E-1,2.346317619E-1,3.857059002E0,8.918401718E0,9.719559939E0
8.403971530E-1,2.418143749E-1,3.854664803E0,8.911218643E0,9.712195047E0
8.413931910E-1,2.418143749E-1,3.857059002E0,8.908824921E0,9.710949480E0
8.443557680E-1,2.346317619E-1,3.866635799E0,8.918401718E0,9.723364319E0
8.454937680E-1,2.298433632E-1,3.854664803E0,8.906430244E0,9.707510928E0
8.485235370E-1,2.322375625E-1,3.849876404E0,8.908824921E0,9.707865063E0
8.495981910E-1,2.418143749E-1,3.847482204E0,8.911218643E0,9.709346590E0
8.525278450E-1,2.298433632E-1,3.830722809E0,8.925583839E0,9.715622064E0
8.539848450E-1,2.298433632E-1,3.816357613E0,8.927978516E0,9.712168335E0
8.563253450E-1,2.322375625E-1,3.813963413E0,8.937555313E0,9.720089824E0
8.576964610E-1,2.418143749E-1,3.818751812E0,8.942343712E0,9.726605300E0
8.606269610E-1,2.489969730E-1,3.816357613E0,8.947132111E0,9.730249633E0
8.617869610E-1,2.489969730E-1,3.813963413E0,8.954314232E0,9.735915970E0
8.646608840E-1,2.609679997E-1,3.804386616E0,8.966285706E0,9.743497379E0
8.658940760E-1,2.657563984E-1,3.813963413E0,8.975862503E0,9.756180147E0
8.689306140E-1,2.705447972E-1,3.818751812E0,8.971074104E0,9.753780317E0
8.699773450E-1,2.561795712E-1,3.811569214E0,8.995016098E0,9.772614924E0
8.729164990E-1,2.370259613E-1,3.806780815E0,9.004592896E0,9.779082508E0
8.743403070E-1,2.346317619E-1,3.797203779E0,9.011775017E0,9.781916865E0
8.769389600E-1,2.346317619E-1,3.787626982E0,9.014169693E0,9.780410292E0
8.780655370E-1,2.489969730E-1,3.801992416E0,9.009381294E0,9.781927066E0
8.810852300E-1,2.537853718E-1,3.811569214E0,9.028534889E0,9.803413137E0
8.821716140E-1,2.561795712E-1,3.806780815E0,9.038111687E0,9.810436841E0
8.850953450E-1,2.537853718E-1,3.806780815E0,9.047688484E0,9.819198241E0
8.862614220E-1,2.394201756E-1,3.787626982E0,9.059659004E0,9.822467177E0
8.892909220E-1,2.561795712E-1,3.782838583E0,9.076418877E0,9.836507274E0
8.903579990E-1,2.537853718E-1,3.797203779E0,9.074024200E0,9.839770259E0
8.932929220E-1,2.250549644E-1,3.799597979E0,9.071630478E0,9.837788068E0
8.947705760E-1,2.226607651E-1,3.801992416E0,9.083600998E0,9.849697013E0
8.971724990E-1,2.250549644E-1,3.804386616E0,9.088389397E0,9.855091531E0
8.985229990E-1,2.322375625E-1,3.797203779E0,9.093177795E0,9.856904851E0
9.011800760E-1,2.322375625E-1,3.787626982E0,9.088389397E0,9.848800651E0
9.025699220E-1,2.226607651E-1,3.806780815E0,9.083600998E0,9.851546329E0
9.055072300E-1,2.274491638E-1,3.823540211E0,9.088389397E0,9.862556195E0
9.066669990E-1,2.154781520E-1,3.818751812E0,9.069235802E0,9.842780820E0
9.096418450E-1,2.130839527E-1,3.823540211E0,9.054870605E0,9.831355257E0
9.107634220E-1,2.202665508E-1,3.818751812E0,9.045293808E0,9.820831066E0
9.137399220E-1,2.130839527E-1,3.813963413E0,9.038111687E0,9.812195705E0
9.151643450E-1,2.106897533E-1,3.828328609E0,9.028534889E0,9.808921060E0
9.177998450E-1,2.154781520E-1,3.837905407E0,8.999804497E0,9.786338934E0
9.189246530E-1,2.154781520E-1,3.845088005E0,8.997409821E0,9.786956426E0
9.218847300E-1,2.178723514E-1,3.849876404E0,8.990227699E0,9.782290671E0
9.229494220E-1,2.154781520E-1,3.861847401E0,8.968679428E0,9.767164730E0
9.259016140E-1,2.106897533E-1,3.869029999E0,8.951920509E0,9.754520189E0
9.270508450E-1,1.987187415E-1,3.888183594E0,8.944737434E0,9.755295412E0
9.300675370E-1,1.915361285E-1,3.878606796E0,8.939949036E0,9.746946472E0
9.311596910E-1,2.154781520E-1,3.864241600E0,8.932766914E0,9.735148624E0
9.341370760E-1,2.202665508E-1,3.876212597E0,8.923190117E0,9.731231336E0
9.355606140E-1,2.130839527E-1,3.888183594E0,8.923190117E0,9.735846049E0
9.378655370E-1,2.130839527E-1,3.892971992E0,8.920795441E0,9.735565058E0
9.392660370E-1,2.250549644E-1,3.892971992E0,8.916007042E0,9.731447079E0
9.421773450E-1,2.489969730E-1,3.902548790E0,8.894459724E0,9.716136081E0
9.433689990E-1,2.609679997E-1,3.907337189E0,8.892065048E0,9.716182842E0
9.462100370E-1,2.489969730E-1,3.892971992E0,8.887276649E0,9.705715670E0
9.474801910E-1,2.561795712E-1,3.890577793E0,8.899248123E0,9.715906581E0
9.504430370E-1,2.729389966E-1,3.878606796E0,8.911218643E0,9.722546173E0
9.515990760E-1,2.825157940E-1,3.878606796E0,8.944737434E0,9.753549796E0
9.544882680E-1,2.873041928E-1,3.876212597E0,8.987833023E0,9.792278093E0
9.559215370E-1,3.016694188E-1,3.873818398E0,9.006986618E0,9.809346632E0
9.585159600E-1,3.184288144E-1,3.881000996E0,9.030928612E0,9.834695584E0
9.596401530E-1,3.351882398E-1,3.881000996E0,9.054870605E0,9.857241073E0
9.626592680E-1,3.303998411E-1,3.881000996E0,9.071630478E0,9.872477516E0
9.637369220E-1,3.375824392E-1,3.876212597E0,9.114726067E0,9.910459993E0
9.666723840E-1,3.519476354E-1,3.876212597E0,9.129091263E0,9.924172435E0
9.678331530E-1,3.447650373E-1,3.885789394E0,9.121908188E0,9.921059980E0
9.708463450E-1,3.447650373E-1,3.878606796E0,9.124302864E0,9.920451419E0
9.719386910E-1,3.543418646E-1,3.857059002E0,9.133879662E0,9.921200531E0
9.748895760E-1,3.567360640E-1,3.847482204E0,9.143456459E0,9.926387860E0
9.763575760E-1,3.567360640E-1,3.859453201E0,9.141061783E0,9.928829244E0
9.787377300E-1,3.471592367E-1,3.857059002E0,9.148244858E0,9.934173728E0
9.800389220E-1,3.495534360E-1,3.873818398E0,9.126696587E0,9.920949912E0
9.827363070E-1,3.160346150E-1,3.883395195E0,9.105149269E0,9.903755819E0
9.841526910E-1,3.112462163E-1,3.873818398E0,9.095572472E0,9.891045535E0
9.870738830E-1,3.016694188E-1,3.859453201E0,9.062053680E0,9.854298573E0
9.882393830E-1,2.777273953E-1,3.866635799E0,9.030928612E0,9.827801204E0
9.912054990E-1,2.753331959E-1,3.871424198E0,9.016563416E0,9.816422440E0
9.923273830E-1,2.609679997E-1,3.871424198E0,9.002198219E0,9.802836447E0
9.958435370E-1,2.466027737E-1,3.857059002E0,8.985439301E0,9.781402583E0
9.969426530E-1,2.466027737E-1,3.869029999E0,8.963891029E0,9.766347754E0
9.993306140E-1,2.370259613E-1,3.866635799E0,8.961497307E0,9.762965108E0
1.000455383E0,2.250549644E-1,3.842693806E0,8.944737434E0,9.737826923E0
1.003516307E0,2.082955539E-1,3.854664803E0,8.911218643E0,9.711418304E0
1.004549576E0,2.059013397E-1,3.852270603E0,8.908824921E0,9.708220518E0
1.007495230E0,2.059013397E-1,3.825934410E0,8.894459724E0,9.684605478E0
1.008645422E0,2.082955539E-1,3.828328609E0,8.877699852E0,9.670214147E0
1.011662768E0,1.915361285E-1,3.823540211E0,8.870517731E0,9.661378299E0
1.012744614E0,1.939303428E-1,3.813963413E0,8.875306129E0,9.662038335E0
1.015722153E0,2.154781520E-1,3.801992416E0,8.875306129E0,9.657775938E0
1.017180268E0,2.418143749E-1,3.811569214E0,8.844181061E0,9.633590852E0
1.019476730E0,2.370259613E-1,3.797203779E0,8.846575737E0,9.629996891E0
1.020851883E0,2.274491638E-1,3.790021181E0,8.827422142E0,9.609337925E0
1.023786499E0,2.298433632E-1,3.785232782E0,8.820239067E0,9.600907894E0
1.024969845E0,2.442085743E-1,3.790021181E0,8.829815865E0,9.611948116E0
1.027807076E0,2.489969730E-1,3.794809580E0,8.839392662E0,9.622756459E0
1.029108691E0,2.442085743E-1,3.797203779E0,8.868123055E0,9.649974139E0
1.032172576E0,2.346317619E-1,3.801992416E0,8.875306129E0,9.658222263E0
1.033154922E0,2.370259613E-1,3.797203779E0,8.877699852E0,9.658596819E0
1.036086614E0,2.489969730E-1,3.792415380E0,8.877699852E0,9.657016546E0
1.037511768E0,2.466027737E-1,3.797203779E0,8.894459724E0,9.674243291E0
1.040113422E0,2.561795712E-1,3.773261786E0,8.913613319E0,9.682749345E0
1.041239037E0,2.681505978E-1,3.770867586E0,8.932766914E0,9.699776896E0
1.044264576E0,2.801215947E-1,3.790021181E0,8.963891029E0,9.736224681E0
1.045374730E0,2.849099934E-1,3.804386616E0,8.978256226E0,9.755184062E0
1.048280191E0,2.825157940E-1,3.809175014E0,8.985439301E0,9.763593032E0
1.049430883E0,2.585737705E-1,3.811569214E0,8.995016098E0,9.772677978E0
1.052450307E0,2.753331959E-1,3.821146011E0,9.016563416E0,9.796702559E0
1.053531730E0,2.753331959E-1,3.816357613E0,9.033323288E0,9.810266226E0
1.056560268E0,2.753331959E-1,3.818751812E0,9.033323288E0,9.811197857E0
1.057967460E0,2.777273953E-1,3.835511208E0,9.057265282E0,9.839833998E0
1.060341037E0,2.513911724E-1,3.825934410E0,9.069235802E0,9.846421160E0
1.061637114E0,2.537853718E-1,3.825934410E0,9.081207275E0,9.857510168E0
1.064330576E0,2.442085743E-1,3.830722809E0,9.100360870E0,9.876772906E0
1.065742845E0,2.370259613E-1,3.854664803E0,9.117119789E0,9.901338056E0
1.068677191E0,2.250549644E-1,3.857059002E0,9.131484985E0,9.915219207E0
1.069832576E0,2.250549644E-1,3.864241600E0,9.143456459E0,9.929038669E0
1.072803768E0,2.250549644E-1,3.871424198E0,9.145850182E0,9.934039994E0
1.073928076E0,2.154781520E-1,3.857059002E0,9.155426979E0,9.937060840E0
1.076868614E0,2.035071403E-1,3.847482204E0,9.155426979E0,9.933095068E0
1.078322499E0,2.059013397E-1,3.849876404E0,9.157821655E0,9.936279040E0
1.080890422E0,1.891419291E-1,3.852270603E0,9.169792175E0,9.947906916E0
1.082015730E0,2.011129409E-1,3.847482204E0,9.174580574E0,9.950703213E0
1.085039306E0,2.106897533E-1,3.852270603E0,9.165003777E0,9.943926448E0
1.086119537E0,2.250549644E-1,3.845088005E0,9.157821655E0,9.934840158E0
1.089049422E0,2.082955539E-1,3.866635799E0,9.148244858E0,9.934014467E0
1.090209806E0,1.843535304E-1,3.871424198E0,9.143456459E0,9.930997310E0
1.093226922E0,1.939303428E-1,3.854664803E0,9.143456459E0,9.924658470E0
1.094309153E0,2.059013397E-1,3.866635799E0,9.143456459E0,9.929555065E0
1.097258230E0,2.250549644E-1,3.866635799E0,9.136273384E0,9.923356967E0
1.098730653E0,2.274491638E-1,3.859453201E0,9.126696587E0,9.911796140E0
1.101099806E0,2.154781520E-1,3.847482204E0,9.112331390E0,9.893641065E0
1.102414499E0,2.298433632E-1,3.869029999E0,9.097966194E0,9.889146069E0
1.105391345E0,2.274491638E-1,3.873818398E0,9.085995674E0,9.879955440E0
1.106523114E0,2.346317619E-1,3.895366192E0,9.071630478E0,9.875394137E0
1.109483153E0,2.489969730E-1,3.888183594E0,9.069235802E0,9.870714725E0
1.110614422E0,2.346317619E-1,3.888183594E0,9.059659004E0,9.861564024E0
1.113577037E0,2.250549644E-1,3.885789394E0,9.057265282E0,9.858197773E0
1.114707499E0,2.322375625E-1,3.881000996E0,9.045293808E0,9.845478307E0
1.117659037E0,2.346317619E-1,3.885789394E0,9.018958092E0,9.823238587E0
1.119137730E0,2.298433632E-1,3.904942989E0,9.018958092E0,9.830717816E0
1.121661691E0,2.370259613E-1,3.912125587E0,9.014169693E0,9.829352124E0
1.122792537E0,2.513911724E-1,3.914519787E0,9.006986618E0,9.824076070E0
1.125832306E0,2.394201756E-1,3.902548790E0,8.997409821E0,9.810228976E0
1.126886153E0,2.322375625E-1,3.904942989E0,8.997409821E0,9.811008996E0
1.129822999E0,2.250549644E-1,3.895366192E0,9.009381294E0,9.818018069E0
1.130990768E0,2.513911724E-1,3.888183594E0,8.997409821E0,9.804822929E0
1.134001153E0,2.513911724E-1,3.888183594E0,8.987833023E0,9.796035506E0
1.135088345E0,2.442085743E-1,3.878606796E0,8.980650902E0,9.785464686E0
1.138021230E0,2.346317619E-1,3.866635799E0,8.985439301E0,9.784888548E0
1.139566230E0,2.274491638E-1,3.888183594E0,8.978256226E0,9.786663866E0
1.141891576E0,2.322375625E-1,3.890577793E0,8.966285706E0,9.776748396E0
1.143256537E0,2.370259613E-1,3.878606796E0,8.968679428E0,9.774302158E0
1.145897922E0,2.250549644E-1,3.857059002E0,8.978256226E0,9.774284564E0
1.147298845E0,2.274491638E-1,3.852270603E0,8.990227699E0,9.783451130E0
1.150227537E0,2.202665508E-1,3.849876404E0,8.987833023E0,9.780143564E0
1.151386230E0,2.035071403E-1,3.852270603E0,8.997409821E0,9.789524372E0
1.154348883E0,2.106897533E-1,3.823540211E0,8.997409821E0,9.778406485E0
1.155479076E0,2.154781520E-1,3.833117008E0,8.992621422E0,9.777855433E0
1.158415845E0,2.059013397E-1,3.828328609E0,9.006986618E0,9.788988877E0
1.159872730E0,2.082955539E-1,3.821146011E0,9.004592896E0,9.784029696E0
1.162433114E0,2.154781520E-1,3.818751812E0,9.006986618E0,9.785453703E0
1.163567268E0,2.082955539E-1,3.809175014E0,9.006986618E0,9.781564766E0
1.166624076E0,1.963245422E-1,3.797203779E0,9.018958092E0,9.787691501E0
1.167665076E0,1.963245422E-1,3.787626982E0,9.026140213E0,9.790601035E0
1.170594037E0,1.915361285E-1,3.778050184E0,9.021351814E0,9.782389168E0
1.171762306E0,1.891419291E-1,3.790021181E0,9.035717010E0,9.800215157E0
1.174766883E0,2.011129409E-1,3.780444384E0,9.028534889E0,9.790130152E0
1.175858768E0,2.130839527E-1,3.770867586E0,9.030928612E0,9.788897727E0
1.178789768E0,2.106897533E-1,3.766079187E0,9.023746490E0,9.780375419E0
1.180270768E0,2.202665508E-1,3.770867586E0,9.023746490E0,9.782431213E0
1.182593960E0,2.274491638E-1,3.773261786E0,9.035717010E0,9.794560711E0
1.183977883E0,2.346317619E-1,3.770867586E0,9.042900085E0,9.800435519E0
1.186880422E0,2.418143749E-1,3.763684988E0,9.050082207E0,9.804477897E0
1.188064922E0,2.537853718E-1,3.754108191E0,9.052476883E0,9.803319491E0
1.190923960E0,2.466027737E-1,3.758896589E0,9.057265282E0,9.809391973E0
1.192169345E0,2.489969730E-1,3.763684988E0,9.054870605E0,9.809077727E0
1.195206999E0,2.537853718E-1,3.761290789E0,9.035717010E0,9.790602500E0
1.196259806E0,2.633621991E-1,3.761290789E0,9.033323288E0,9.788646366E0
1.199199076E0,2.609679997E-1,3.785232782E0,9.033323288E0,9.797806956E0
1.200619422E0,2.561795712E-1,3.778050184E0,9.026140213E0,9.788283727E0
1.203218076E0,2.633621991E-1,3.773261786E0,9.028534889E0,9.788835804E0
1.204342037E0,2.753331959E-1,3.787626982E0,9.030928612E0,9.796917786E0
1.207366691E0,2.705447972E-1,3.794809580E0,9.021351814E0,9.790738623E0
1.208434729E0,2.825157940E-1,3.785232782E0,9.011775017E0,9.778542394E0
1.211375883E0,2.753331959E-1,3.785232782E0,9.014169693E0,9.780544506E0
1.212543960E0,2.705447972E-1,3.775655985E0,9.030928612E0,9.792162386E0
1.215547268E0,2.849099934E-1,3.787626982E0,9.035717010E0,9.801605672E0
1.216634653E0,3.040636182E-1,3.790021181E0,9.026140213E0,9.794280085E0
1.219586037E0,2.968810201E-1,3.780444384E0,9.030928612E0,9.794772568E0
1.221044345E0,3.088520169E-1,3.775655985E0,9.033323288E0,9.795503933E0
1.223442537E0,3.184288144E-1,3.778050184E0,9.045293808E0,9.807772437E0
1.224745460E0,2.992752194E-1,3.787626982E0,9.052476883E0,9.817485499E0
1.227504345E0,2.992752194E-1,3.790021181E0,9.054870605E0,9.820616472E0
1.228841960E0,3.064578176E-1,3.794809580E0,9.042900085E0,9.811653179E0
1.231791191E0,3.232172430E-1,3.790021181E0,9.047688484E0,9.814754039E0
1.233066845E0,3.280056417E-1,3.790021181E0,9.057265282E0,9.823741784E0
1.236105806E0,3.232172430E-1,3.792415380E0,9.066842079E0,9.833336621E0
1.237031576E0,3.280056417E-1,3.787626982E0,9.085995674E0,9.849315877E0
1.240563728E0,3.399766386E-1,3.801992416E0,9.088389397E0,9.857461756E0
1.241663229E0,3.351882398E-1,3.794809580E0,9.088389397E0,9.854529554E0
1.244057883E0,3.399766386E-1,3.790021181E0,9.076418877E0,9.841810011E0
1.245185691E0,3.256114423E-1,3.794809580E0,9.076418877E0,9.843169316E0
1.248209383E0,3.112462163E-1,3.806780815E0,9.069235802E0,9.840705890E0
1.249276076E0,3.112462163E-1,3.821146011E0,9.064447403E0,9.841861499E0
1.252200191E0,3.232172430E-1,3.828328609E0,9.052476883E0,9.834017848E0
1.253425499E0,3.160346150E-1,3.823540211E0,9.059659004E0,9.838534387E0
1.256384037E0,2.944868207E-1,3.818751812E0,9.057265282E0,9.833801008E0
1.257496076E0,2.777273953E-1,3.816357613E0,9.064447403E0,9.839000186E0
1.260429191E0,2.753331959E-1,3.809175014E0,9.081207275E0,9.851596228E0
1.261870806E0,2.968810201E-1,3.818751812E0,9.083600998E0,9.858134247E0
1.264189845E0,2.873041928E-1,3.828328609E0,9.083600998E0,9.861564315E0
1.265629768E0,2.777273953E-1,3.842693806E0,9.085995674E0,9.869080280E0
1.268480806E0,2.705447972E-1,3.857059002E0,9.081207275E0,9.870077214E0
1.269660883E0,2.705447972E-1,3.864241600E0,9.074024200E0,9.866279584E0
1.272531576E0,2.657563984E-1,3.861847401E0,9.038111687E0,9.832189719E0
1.273762537E0,2.466027737E-1,3.859453201E0,9.040505409E0,9.832951235E0
1.276809922E0,2.298433632E-1,3.837905407E0,9.018958092E0,9.804282276E0
1.277909076E0,2.226607651E-1,3.830722809E0,9.004592896E0,9.788090124E0
1.280785768E0,2.274491638E-1,3.825934410E0,8.975862503E0,9.759898304E0
1.282211768E0,2.346317619E-1,3.852270603E0,8.980650902E0,9.774821302E0
1.284811306E0,2.226607651E-1,3.859453201E0,8.980650902E0,9.777374261E0
1.285941576E0,2.322375625E-1,3.861847401E0,8.975862503E0,9.774144838E0
1.288962768E0,2.250549644E-1,3.837905407E0,8.980650902E0,9.768943560E0
1.290042191E0,2.178723514E-1,3.852270603E0,8.978256226E0,9.772233215E0
1.292978806E0,2.298433632E-1,3.857059002E0,8.975862503E0,9.772197286E0
1.294143999E0,2.154781520E-1,3.845088005E0,8.975862503E0,9.767151083E0
1.297156499E0,2.226607651E-1,3.830722809E0,8.978256226E0,9.763867057E0
1.298244076E0,2.394201756E-1,3.833117008E0,9.009381294E0,9.793827614E0
1.301248306E0,2.346317619E-1,3.828328609E0,9.021351814E0,9.802853695E0
1.302661768E0,2.370259613E-1,3.816357613E0,9.028534889E0,9.804856398E0
1.305045883E0,2.442085743E-1,3.821146011E0,9.030928612E0,9.809101195E0
1.306347499E0,2.394201756E-1,3.816357613E0,9.026140213E0,9.802709554E0
1.309042268E0,2.442085743E-1,3.809175014E0,9.047688484E0,9.819883860E0
1.310439845E0,2.489969730E-1,3.821146011E0,9.062053680E0,9.837884592E0
1.313408537E0,2.394201756E-1,3.825934410E0,9.062053680E0,9.839507764E0
1.314545229E0,2.370259613E-1,3.813963413E0,9.062053680E0,9.834801225E0
1.317502345E0,2.466027737E-1,3.818751812E0,9.085995674E0,9.858955103E0
1.318637845E0,2.489969730E-1,3.806780815E0,9.102754593E0,9.869838947E0
1.321564460E0,2.418143749E-1,3.818751812E0,9.095572472E0,9.867663258E0
1.323033614E0,2.274491638E-1,3.830722809E0,9.090784073E0,9.867549109E0
1.325590922E0,2.322375625E-1,3.833117008E0,9.097966194E0,9.875206790E0
1.326726268E0,2.394201756E-1,3.830722809E0,9.105149269E0,9.881067881E0
1.329783383E0,2.322375625E-1,3.830722809E0,9.100360870E0,9.876484167E0
1.330821229E0,2.202665508E-1,3.842693806E0,9.121908188E0,9.900708158E0
1.333754922E0,1.987187415E-1,3.840299606E0,9.129091263E0,9.905942534E0
1.334922345E0,1.987187415E-1,3.830722809E0,9.136273384E0,9.908855520E0
1.337925691E0,1.843535304E-1,3.842693806E0,9.145850182E0,9.922038977E0
1.339016306E0,1.867477298E-1,3.854664803E0,9.129091263E0,9.911287643E0
1.341976922E0,1.843535304E-1,3.852270603E0,9.129091263E0,9.910311918E0
1.343444806E0,1.819593310E-1,3.857059002E0,9.129091263E0,9.912129974E0
1.345724383E0,1.651999205E-1,3.854664803E0,9.126696587E0,9.908699326E0
1.347127345E0,1.532289088E-1,3.864241600E0,9.126696587E0,9.912236520E0
1.350042076E0,1.556231081E-1,3.866635799E0,9.119514465E0,9.906595532E0
1.351222191E0,1.580173075E-1,3.854664803E0,9.105149269E0,9.888738717E0
1.354094652E0,1.580173075E-1,3.871424198E0,9.112331390E0,9.901892655E0
1.355336806E0,1.651999205E-1,3.854664803E0,9.100360870E0,9.884447366E0
1.358351422E0,1.604115069E-1,3.842693806E0,9.085995674E0,9.866475811E0
1.359409229E0,1.771709323E-1,3.852270603E0,9.074024200E0,9.859477346E0
1.362385999E0,1.795651317E-1,3.854664803E0,9.069235802E0,9.856050041E0
1.363769076E0,1.795651317E-1,3.852270603E0,9.064447403E0,9.850707546E0
1.366371460E0,1.819593310E-1,3.869029999E0,9.057265282E0,9.850713513E0
1.367503076E0,1.723825186E-1,3.897760391E0,9.042900085E0,9.848669644E0
1.370524576E0,1.915361285E-1,3.895366192E0,9.033323288E0,9.839283179E0
1.371601614E0,1.939303428E-1,3.900154591E0,9.026140213E0,9.834633799E0
1.374531806E0,2.082955539E-1,3.900154591E0,9.018958092E0,9.828336478E0
1.375695922E0,2.130839527E-1,3.892971992E0,9.021351814E0,9.827788371E0
1.378704845E0,2.250549644E-1,3.890577793E0,9.021351814E0,9.827107095E0
1.379790652E0,2.011129409E-1,3.890577793E0,9.009381294E0,9.815599487E0
1.382807422E0,2.202665508E-1,3.902548790E0,9.018958092E0,9.829547776E0
1.384248076E0,2.226607651E-1,3.895366192E0,9.016563416E0,9.824554515E0
1.386591076E0,2.250549644E-1,3.897760391E0,9.016563416E0,9.825558591E0
1.387897845E0,2.082955539E-1,3.897760391E0,9.030928612E0,9.838373580E0
1.390631614E0,2.298433632E-1,3.907337189E0,9.026140213E0,9.838257926E0
1.391991306E0,2.298433632E-1,3.909731388E0,9.011775017E0,9.826032590E0
1.394921499E0,2.394201756E-1,3.904942989E0,9.006986618E0,9.819964853E0
1.396079845E0,2.633621991E-1,3.900154591E0,9.011775017E0,9.823067465E0
1.399055652E0,2.657563984E-1,3.895366192E0,9.014169693E0,9.823429110E0
1.400178422E0,2.681505978E-1,3.890577793E0,9.014169693E0,9.821596386E0
1.403132268E0,2.849099934E-1,3.900154591E0,9.006986618E0,9.819276321E0
1.404586883E0,2.896983922E-1,3.881000996E0,9.038111687E0,9.840404298E0
1.407163152E0,2.825157940E-1,3.885789394E0,9.047688484E0,9.850880230E0
1.408278652E0,2.513911724E-1,3.883395195E0,9.035717010E0,9.838096241E0
1.411329229E0,2.681505978E-1,3.890577793E0,9.040505409E0,9.845772614E0
1.412408499E0,2.585737705E-1,3.909731388E0,9.040505409E0,9.853100932E0
1.415326306E0,2.561795712E-1,3.914519787E0,9.038111687E0,9.852743577E0
1.416477537E0,2.657563984E-1,3.919308186E0,9.033323288E0,9.850509263E0
1.419484652E0,2.466027737E-1,3.890577793E0,9.030928612E0,9.836416018E0
1.420565422E0,2.346317619E-1,3.890577793E0,9.023746490E0,9.829529406E0
1.423533922E0,2.370259613E-1,3.897760391E0,9.023746490E0,9.832431952E0
1.424988152E0,2.250549644E-1,3.864241600E0,9.014169693E0,9.810110506E0
1.427318575E0,2.418143749E-1,3.873818398E0,9.014169693E0,9.814285426E0
1.428683537E0,2.466027737E-1,3.873818398E0,9.011775017E0,9.812205199E0
1.431626152E0,2.394201756E-1,3.859453201E0,9.002198219E0,9.797564688E0
1.432770037E0,2.513911724E-1,3.861847401E0,9.011775017E0,9.807606835E0
1.435624383E0,2.346317619E-1,3.869029999E0,9.014169693E0,9.812221993E0
1.436863268E0,2.370259613E-1,3.854664803E0,8.995016098E0,9.789021230E0
1.439848806E0,2.513911724E-1,3.845088005E0,8.987833023E0,9.779010264E0
1.440975422E0,2.657563984E-1,3.845088005E0,8.978256226E0,9.770589188E0
1.443919306E0,2.657563984E-1,3.847482204E0,8.973467827E0,9.767132159E0
1.445398922E0,2.633621991E-1,3.840299606E0,8.973467827E0,9.764240142E0
1.447925614E0,2.896983922E-1,3.830722809E0,8.954314232E0,9.743618720E0
1.449046114E0,2.873041928E-1,3.825934410E0,8.949525833E0,9.737265039E0
1.452075652E0,2.777273953E-1,3.830722809E0,8.944737434E0,9.734469555E0
1.453146845E0,2.944868207E-1,3.833117008E0,8.927978516E0,9.720509702E0
1.456091575E0,3.112462163E-1,3.828328609E0,8.927978516E0,9.719144742E0
1.457243922E0,3.280056417E-1,3.825934410E0,8.923190117E0,9.714354517E0
1.460263114E0,3.280056417E-1,3.825934410E0,8.944737434E0,9.734150686E0
1.461385075E0,3.399766386E-1,3.830722809E0,8.927978516E0,9.721050444E0
1.464289652E0,3.567360640E-1,3.811569214E0,8.908824921E0,9.696519064E0
1.465754845E0,3.687070608E-1,3.816357613E0,8.901641846E0,9.692252466E0
1.468164652E0,3.878606856E-1,3.825934410E0,8.908824921E0,9.703369079E0
1.469443614E0,3.974374831E-1,3.828328609E0,8.920795441E0,9.715690804E0
1.472148883E0,4.046200812E-1,3.833117008E0,8.913613319E0,9.711282398E0
1.473547075E0,4.094084799E-1,3.825934410E0,8.911218643E0,9.706451830E0
1.476549537E0,4.141969085E-1,3.813963413E0,8.920795441E0,9.710739791E0
1.477658075E0,4.357447028E-1,3.825934410E0,8.927978516E0,9.722985546E0
1.480630460E0,4.453215301E-1,3.837905407E0,8.947132111E0,9.745717120E0
1.481747768E0,4.405331016E-1,3.833117008E0,8.942343712E0,9.739217960E0
1.485261958E0,4.525041282E-1,3.833117008E0,8.949525833E0,9.746361302E0
1.486368691E0,4.525041282E-1,3.849876404E0,8.959102631E0,9.761753339E0
1.488768114E0,4.453215301E-1,3.840299606E0,8.956708908E0,9.755452157E0
1.489881768E0,4.477157295E-1,3.837905407E0,8.954314232E0,9.752420758E0
1.492950460E0,4.405331016E-1,3.847482204E0,8.956708908E0,9.758064521E0
1.493976037E0,4.405331016E-1,3.845088005E0,8.961497307E0,9.761516540E0
1.496911691E0,4.381389022E-1,3.837905407E0,8.971074104E0,9.767377038E0
1.498070037E0,4.309563041E-1,3.857059002E0,8.968679428E0,9.772401863E0
1.501077845E0,4.309563041E-1,3.852270603E0,8.971074104E0,9.772711124E0
1.502163460E0,3.974374831E-1,3.849876404E0,8.968679428E0,9.768148011E0
1.505098075E0,3.830722570E-1,3.866635799E0,8.968679428E0,9.774191907E0
1.506581806E0,3.758896589E-1,3.859453201E0,8.956708908E0,9.760087423E0
1.508910768E0,3.711012602E-1,3.859453201E0,8.954314232E0,9.757706622E0
1.510342883E0,3.519476354E-1,3.866635799E0,8.961497307E0,9.766430951E0
1.513222845E0,3.591302633E-1,3.871424198E0,8.959102631E0,9.766392364E0
1.514385614E0,3.543418646E-1,3.881000996E0,8.954314232E0,9.765626977E0
1.517256883E0,3.447650373E-1,3.883395195E0,8.968679428E0,9.779408564E0
1.518483498E0,3.232172430E-1,3.878606796E0,8.961497307E0,9.770183931E0
1.521597652E0,3.232172430E-1,3.885789394E0,8.954314232E0,9.766451350E0
1.522568922E0,3.303998411E-1,3.883395195E0,8.951920509E0,9.763544597E0
1.525511960E0,3.303998411E-1,3.888183594E0,8.959102631E0,9.772034366E0
1.526940691E0,3.256114423E-1,3.883395195E0,8.932766914E0,9.745825045E0
1.529530960E0,3.256114423E-1,3.869029999E0,8.930372238E0,9.737913753E0
1.530672806E0,3.351882398E-1,3.878606796E0,8.932766914E0,9.744242740E0
1.533692229E0,3.184288144E-1,3.849876404E0,8.913613319E0,9.714702653E0
1.534760422E0,3.112462163E-1,3.873818398E0,8.911218643E0,9.721787947E0
1.537704922E0,3.136404157E-1,3.876212597E0,8.911218643E0,9.722819144E0
1.538853191E0,3.327940404E-1,3.881000996E0,8.916007042E0,9.729753449E0
1.541858691E0,3.495534360E-1,3.873818398E0,8.918401718E0,9.729673468E0
1.542950152E0,3.519476354E-1,3.878606796E0,8.927978516E0,9.740444456E0
1.545932614E0,3.734954596E-1,3.873818398E0,8.923190117E0,9.734951962E0
1.547376498E0,3.854664862E-1,3.873818398E0,8.918401718E0,9.731029884E0
1.549876191E0,3.878606856E-1,3.888183594E0,8.918401718E0,9.736852509E0
1.551118806E0,4.046200812E-1,3.885789394E0,8.911218643E0,9.729999709E0
1.553748114E0,4.285621047E-1,3.895366192E0,8.908824921E0,9.732661749E0
1.555160114E0,4.261679053E-1,3.881000996E0,8.887276649E0,9.707083705E0
1.558224691E0,4.213795066E-1,3.885789394E0,8.882488251E0,9.704407114E0
1.559322114E0,4.285621047E-1,3.902548790E0,8.880094528E0,9.709254934E0
1.562224575E0,4.405331016E-1,3.907337189E0,8.875306129E0,9.707338060E0
1.563363114E0,4.453215301E-1,3.902548790E0,8.865729332E0,9.696873461E0
1.566303383E0,4.501099288E-1,3.904942989E0,8.868123055E0,9.700246657E0
1.567753229E0,4.668693244E-1,3.919308186E0,8.848969460E0,9.689334555E0
1.570306768E0,4.501099288E-1,3.909731388E0,8.834604263E0,9.671547496E0
1.571435537E0,4.501099288E-1,3.897760391E0,8.832210541E0,9.664526789E0
1.574460691E0,4.644751251E-1,3.883395195E0,8.856152534E0,9.681318768E0
1.575557729E0,4.764461517E-1,3.890577793E0,8.875306129E0,9.702301551E0
1.578470806E0,4.836287498E-1,3.895366192E0,8.882488251E0,9.711146794E0
1.579635652E0,4.740519226E-1,3.881000996E0,8.877699852E0,9.700538573E0
1.582635614E0,4.979939461E-1,3.895366192E0,8.892065048E0,9.720632519E0
1.583766806E0,4.955997467E-1,3.907337189E0,8.896853447E0,9.729691890E0
1.586714152E0,4.955997467E-1,3.900154591E0,8.906430244E0,9.735570073E0
1.588139306E0,4.764461517E-1,3.890577793E0,8.923190117E0,9.746123248E0
1.590453537E0,4.788403511E-1,3.890577793E0,8.944737434E0,9.765972118E0
1.591922075E0,4.668693244E-1,3.878606796E0,8.968679428E0,9.782574729E0
1.594815691E0,4.692635238E-1,3.871424198E0,8.975862503E0,9.786431487E0
1.595953922E0,4.764461517E-1,3.864241600E0,8.990227699E0,9.797119891E0
1.598817460E0,4.572925270E-1,3.866635799E0,9.006986618E0,9.812532639E0
1.600019883E0,4.525041282E-1,3.861847401E0,9.009381294E0,9.812623331E0
1.603004960E0,4.716577232E-1,3.840299606E0,9.006986618E0,9.802865398E0
1.604110383E0,4.716577232E-1,3.830722809E0,9.004592896E0,9.796917447E0
1.607052691E0,4.644751251E-1,3.845088005E0,9.016563416E0,9.813197987E0
1.608487345E0,4.501099288E-1,3.837905407E0,9.030928612E0,9.822921584E0
1.611121768E0,4.429273009E-1,3.828328609E0,9.047688484E0,9.834274322E0
1.612206845E0,4.165911078E-1,3.828328609E0,9.052476883E0,9.837529457E0
1.615217460E0,4.046200812E-1,3.821146011E0,9.062053680E0,9.843052939E0
1.616291306E0,3.998316824E-1,3.813963413E0,9.062053680E0,9.840071097E0
1.619252306E0,3.830722570E-1,3.830722809E0,9.066842079E0,9.850320141E0
1.620460460E0,3.639186621E-1,3.825934410E0,9.057265282E0,9.838915859E0
1.623446460E0,3.543418646E-1,3.823540211E0,9.052476883E0,9.833227121E0
1.624515921E0,3.423708379E-1,3.806780815E0,9.069235802E0,9.841739480E0
1.627445575E0,3.399766386E-1,3.818751812E0,9.081207275E0,9.857320888E0
1.628896768E0,3.303998411E-1,3.821146011E0,9.069235802E0,9.846895903E0
1.631312921E0,3.256114423E-1,3.806780815E0,9.066842079E0,9.838964797E0
1.632612921E0,3.232172430E-1,3.804386616E0,9.057265282E0,9.829134310E0
1.635404268E0,3.280056417E-1,3.813963413E0,9.050082207E0,9.826387564E0
1.636749345E0,3.232172430E-1,3.813963413E0,9.050082207E0,9.826228893E0
1.639680691E0,3.088520169E-1,3.804386616E0,9.057265282E0,9.828672417E0
1.640805921E0,2.849099934E-1,3.806780815E0,9.026140213E0,9.800202091E0
1.643853229E0,2.873041928E-1,3.816357613E0,9.009381294E0,9.788568865E0
1.644874729E0,2.968810201E-1,3.849876404E0,9.018958092E0,9.810774267E0
1.647822806E0,2.920926213E-1,3.840299606E0,9.011775017E0,9.800270819E0
1.649377883E0,2.609679997E-1,3.852270603E0,8.990227699E0,9.784287771E0
1.651849268E0,2.537853718E-1,3.852270603E0,8.983044624E0,9.777498992E0
1.652965306E0,2.346317619E-1,3.859453201E0,8.954314232E0,9.753469867E0
1.656025114E0,2.489969730E-1,3.852270603E0,8.942343712E0,9.739994833E0
1.657065383E0,2.585737705E-1,3.857059002E0,8.937555313E0,9.737744067E0
1.660033575E0,2.657563984E-1,3.876212597E0,8.920795441E0,9.730171728E0
1.661173498E0,2.681505978E-1,3.876212597E0,8.899248123E0,9.710486393E0
1.664203191E0,2.489969730E-1,3.890577793E0,8.882488251E0,9.700370745E0
1.665266460E0,2.466027737E-1,3.904942989E0,8.882488251E0,9.706080064E0
1.668216191E0,2.561795712E-1,3.902548790E0,8.884882927E0,9.707556833E0
1.669688037E0,2.681505978E-1,3.897760391E0,8.880094528E0,9.701573050E0
1.672002114E0,2.801215947E-1,3.907337189E0,8.877699852E0,9.703571851E0
1.673396191E0,2.873041928E-1,3.916913986E0,8.877699852E0,9.707642017E0
1.676327729E0,2.873041928E-1,3.924096584E0,8.901641846E0,9.732435731E0
1.677474345E0,2.992752194E-1,3.933673382E0,8.908824921E0,9.743229105E0
1.680342883E0,3.040636182E-1,3.928884983E0,8.916007042E0,9.748013822E0
1.681571652E0,3.112462163E-1,3.948038578E0,8.939949036E0,9.777861299E0
1.684603691E0,3.016694188E-1,3.948038578E0,8.956708908E0,9.792887598E0
1.685722575E0,3.112462163E-1,3.940855980E0,8.959102631E0,9.792483853E0
1.688611960E0,3.136404157E-1,3.948038578E0,8.954314232E0,9.791073602E0
1.690029498E0,3.160346150E-1,3.952826977E0,8.978256226E0,9.814978545E0
1.692658075E0,3.064578176E-1,3.967192173E0,8.973467827E0,9.816091634E0
1.693828191E0,3.064578176E-1,3.962403774E0,8.978256226E0,9.818535783E0
1.696777845E0,3.160346150E-1,3.960009575E0,8.987833023E0,9.826631985E0
1.697839306E0,2.944868207E-1,3.969586372E0,8.990227699E0,9.832015691E0
1.700789306E0,2.873041928E-1,3.974374771E0,9.014169693E0,9.855630562E0
1.701973421E0,2.729389966E-1,3.969586372E0,9.016563416E0,9.855482103E0
1.704957960E0,2.777273953E-1,3.971980572E0,9.004592896E0,9.845631284E0
1.706049114E0,2.801215947E-1,3.979163170E0,8.995016098E0,9.839843609E0
1.709036191E0,2.825157940E-1,3.983951569E0,8.999804497E0,9.846225990E0
1.710461575E0,2.777273953E-1,3.976768970E0,8.997409821E0,9.840996262E0
1.712852152E0,2.896983922E-1,3.969586372E0,8.999804497E0,9.840631184E0
1.714153845E0,2.873041928E-1,3.955221176E0,9.004592896E0,9.839157051E0
1.716831421E0,2.849099934E-1,3.964797974E0,9.009381294E0,9.847321868E0
1.718277537E0,2.681505978E-1,3.962403774E0,9.006986618E0,9.843696275E0
1.721171306E0,2.705447972E-1,3.971980572E0,9.002198219E0,9.843241180E0
1.722341768E0,2.633621991E-1,3.960009575E0,9.004592896E0,9.840413035E0
1.725362729E0,2.729389966E-1,3.945644379E0,9.009381294E0,9.839286385E0
1.726430652E0,2.633621991E-1,3.969586372E0,9.004592896E0,9.844270863E0
1.729942726E0,2.705447972E-1,3.960009575E0,8.995016098E0,9.831845449E0
1.731057537E0,2.729389966E-1,3.955221176E0,8.999804497E0,9.834365827E0
1.733449498E0,2.633621991E-1,3.950432777E0,8.992621422E0,9.825605264E0
1.734566652E0,2.777273953E-1,3.945644379E0,8.995016098E0,9.826268705E0
1.737595883E0,2.633621991E-1,3.933673382E0,8.995016098E0,9.821072270E0
1.738688921E0,2.729389966E-1,3.936067581E0,8.990227699E0,9.817908015E0
1.741608883E0,2.801215947E-1,3.926490784E0,8.983044624E0,9.807695382E0
1.742772921E0,2.992752194E-1,3.912125587E0,8.971074104E0,9.791550585E0
1.745806383E0,3.064578176E-1,3.914519787E0,8.971074104E0,9.792729555E0
1.746861575E0,3.327940404E-1,3.914519787E0,8.980650902E0,9.802362351E0
1.749829729E0,3.327940404E-1,3.904942989E0,8.961497307E0,9.780990011E0
1.751278152E0,3.399766386E-1,3.912125587E0,8.947132111E0,9.770951015E0
1.753580383E0,3.543418646E-1,3.912125587E0,8.925583839E0,9.751734802E0
1.754972652E0,3.471592367E-1,3.919308186E0,8.901641846E0,9.732457230E0
1.757914691E0,3.615244627E-1,3.919308186E0,8.892065048E0,9.724222201E0
1.759077344E0,3.711012602E-1,3.916913986E0,8.880094528E0,9.712672657E0
1.762028614E0,3.734954596E-1,3.933673382E0,8.870517731E0,9.710786268E0
1.763202306E0,3.974374831E-1,3.933673382E0,8.860940933E0,9.702990109E0
1.766218768E0,3.998316824E-1,3.914519787E0,8.856152534E0,9.690963226E0
1.767253075E0,4.022258818E-1,3.919308186E0,8.856152534E0,9.692997474E0
1.770225768E0,4.141969085E-1,3.919308186E0,8.825027466E0,9.665073487E0
1.771658383E0,4.118026793E-1,3.926490784E0,8.815450668E0,9.659144983E0
1.774221383E0,4.237737060E-1,3.928884983E0,8.813055992E0,9.658451081E0
1.775337652E0,4.333505034E-1,3.926490784E0,8.820239067E0,9.664457550E0
1.778377960E0,4.668693244E-1,3.926490784E0,8.815450668E0,9.661649307E0
1.779432806E0,4.740519226E-1,3.931279182E0,8.798690796E0,9.648660060E0
1.782372806E0,4.860229492E-1,3.928884983E0,8.793902397E0,9.643913878E0
1.783536383E0,5.147533417E-1,3.912125587E0,8.803479195E0,9.647328311E0
1.786547806E0,5.123591423E-1,3.921702385E0,8.810662270E0,9.657641074E0
1.787628614E0,5.075707436E-1,3.931279182E0,8.803479195E0,9.654730965E0
1.790601960E0,5.099649429E-1,3.943250179E0,8.805873871E0,9.661920143E0
1.792050806E0,5.123591423E-1,3.943250179E0,8.822632790E0,9.677323143E0
1.794469152E0,5.267243981E-1,3.931279182E0,8.836998940E0,9.686327728E0
1.795878652E0,5.386953950E-1,3.919308186E0,8.841787338E0,9.686504670E0
1.798422883E0,5.434837937E-1,3.928884983E0,8.839392662E0,9.688466054E0
1.799820191E0,5.291185975E-1,3.933673382E0,8.848969460E0,9.698351059E0
1.802803037E0,5.291185975E-1,3.926490784E0,8.853757858E0,9.699810543E0
1.803918998E0,5.267243981E-1,3.907337189E0,8.853757858E0,9.691942566E0
1.806904114E0,5.291185975E-1,3.909731388E0,8.877699852E0,9.714912284E0
1.808026883E0,5.243301988E-1,3.912125587E0,8.889671326E0,9.726556690E0
1.810964844E0,5.051765442E-1,3.912125587E0,8.899248123E0,9.734297464E0
1.812463191E0,4.716577232E-1,3.914519787E0,8.918401718E0,9.751093035E0
1.814994998E0,4.740519226E-1,3.888183594E0,8.927978516E0,9.749435741E0
1.816122575E0,4.716577232E-1,3.878606796E0,8.942343712E0,9.758666033E0
1.819199421E0,4.477157295E-1,3.854664803E0,8.961497307E0,9.765619494E0
1.820195344E0,4.309563041E-1,3.842693806E0,8.971074104E0,9.768940045E0
1.823136806E0,4.118026793E-1,3.845088005E0,8.978256226E0,9.775651797E0
1.824304768E0,3.950432837E-1,3.837905407E0,9.002198219E0,9.794138548E0
1.827313575E0,3.734954596E-1,3.825934410E0,8.987833023E0,9.775398479E0
1.828475191E0,3.519476354E-1,3.804386616E0,8.997409821E0,9.774999138E0
1.831883306E0,3.423708379E-1,3.799597979E0,8.999804497E0,9.775000950E0
1.832810652E0,3.375824392E-1,3.785232782E0,9.011775017E0,9.780288241E0
1.835158075E0,3.232172430E-1,3.761290789E0,9.021351814E0,9.779394988E0
1.836588075E0,3.040636182E-1,3.756502390E0,9.030928612E0,9.785777255E0
1.839434229E0,2.729389966E-1,3.739742994E0,9.035717010E0,9.782860280E0
1.840959767E0,2.681505978E-1,3.727771997E0,9.050082207E0,9.791433846E0
1.843484575E0,2.681505978E-1,3.725377798E0,9.050082207E0,9.790522582E0
1.844729229E0,2.753331959E-1,3.727771997E0,9.064447403E0,9.804911991E0
1.847984844E0,2.585737705E-1,3.711012602E0,9.076418877E0,9.809171960E0
1.848793306E0,2.537853718E-1,3.701435804E0,9.088389397E0,9.816509352E0
1.852032075E0,2.489969730E-1,3.706224203E0,9.097966194E0,9.827058879E0
1.853151960E0,2.418143749E-1,3.684676409E0,9.105149269E0,9.825429133E0
1.855759806E0,2.442085743E-1,3.694253206E0,9.105149269E0,9.829083772E0
1.856876806E0,2.466027737E-1,3.713406801E0,9.109937668E0,9.840790990E0
1.859936883E0,2.609679997E-1,3.713406801E0,9.112331390E0,9.843377354E0
1.861000229E0,2.537853718E-1,3.713406801E0,9.117119789E0,9.847622573E0
1.863922383E0,2.513911724E-1,3.718195200E0,9.136273384E0,9.867100102E0
1.865106691E0,2.489969730E-1,3.722983599E0,9.133879662E0,9.866628808E0
1.868093229E0,2.394201756E-1,3.737348795E0,9.143456459E0,9.880682874E0
1.869174498E0,2.370259613E-1,3.742137194E0,9.155426979E0,9.893513797E0
1.872113575E0,2.513911724E-1,3.775655985E0,9.167398453E0,9.917659504E0
1.873585191E0,2.561795712E-1,3.787626982E0,9.174580574E0,9.928981561E0
1.876000652E0,2.633621991E-1,3.811569214E0,9.176975250E0,9.940537926E0
1.877271114E0,2.633621991E-1,3.818751812E0,9.181763649E0,9.947713745E0
1.880072229E0,2.585737705E-1,3.830722809E0,9.176975250E0,9.947772232E0
1.881415960E0,2.801215947E-1,3.854664803E0,9.186552048E0,9.966426008E0
1.884328344E0,2.920926213E-1,3.883395195E0,9.196128845E0,9.986734305E0
1.885460037E0,3.040636182E-1,3.904942989E0,9.184157372E0,9.984477005E0
1.888450267E0,3.112462163E-1,3.921702385E0,9.162610054E0,9.971461618E0
1.889562998E0,2.992752194E-1,3.931279182E0,9.141061783E0,9.955075700E0
1.892545037E0,3.016694188E-1,3.948038578E0,9.100360870E0,9.924443613E0
1.893950960E0,3.160346150E-1,3.979163170E0,9.050082207E0,9.891289368E0
1.896527652E0,3.256114423E-1,3.991134167E0,9.016563416E0,9.865778762E0
1.897647537E0,3.208230138E-1,4.000710964E0,8.966285706E0,9.823588702E0
1.900678806E0,2.992752194E-1,4.015076160E0,8.920795441E0,9.787287343E0
1.901739460E0,2.992752194E-1,4.017470360E0,8.906430244E0,9.775179459E0
1.904679652E0,3.040636182E-1,4.031835556E0,8.877699852E0,9.755086227E0
1.905848575E0,3.256114423E-1,4.050989151E0,8.858546257E0,9.746300719E0
1.908868806E0,3.327940404E-1,4.053383350E0,8.839392662E0,9.730135204E0
1.909929306E0,3.184288144E-1,4.060565948E0,8.834604263E0,9.728300223E0
1.912889537E0,3.112462163E-1,4.086902142E0,8.820239067E0,9.726060894E0
1.914352191E0,3.256114423E-1,4.091690540E0,8.789113998E0,9.700333972E0
1.916682998E0,3.327940404E-1,4.091690540E0,8.789113998E0,9.700577727E0
1.918226229E0,3.543418646E-1,4.094084740E0,8.765172005E0,9.680667760E0
1.920997844E0,3.615244627E-1,4.086902142E0,8.755595207E0,9.669225227E0
1.922140498E0,3.687070608E-1,4.086902142E0,8.757989883E0,9.671664842E0
1.925012729E0,3.734954596E-1,4.091690540E0,8.748413086E0,9.665203664E0
1.926290652E0,3.950432837E-1,4.086902142E0,8.743624687E0,9.659699839E0
1.929239960E0,4.070142806E-1,4.072536945E0,8.724471092E0,9.636784403E0
1.930346883E0,4.189853072E-1,4.082113743E0,8.734047890E0,9.650015225E0
1.933263075E0,4.285621047E-1,4.072536945E0,8.738836288E0,9.650724446E0
1.934690652E0,4.501099288E-1,4.058171749E0,8.738836288E0,9.645652729E0
1.937521344E0,4.644751251E-1,4.060565948E0,8.750806808E0,9.658185790E0
1.938401960E0,4.692635238E-1,4.055777550E0,8.757989883E0,9.662915015E0
1.941437537E0,4.644751251E-1,4.062960148E0,8.769960403E0,9.676548340E0
1.942501998E0,4.764461517E-1,4.043806553E0,8.803479195E0,9.699516395E0
1.945441229E0,4.788403511E-1,4.039018154E0,8.808267593E0,9.701986071E0
1.946608960E0,4.979939461E-1,4.036623955E0,8.832210541E0,9.723696517E0
1.949604037E0,5.171475410E-1,4.043806553E0,8.846575737E0,9.740724577E0
1.950694844E0,5.123591423E-1,4.031835556E0,8.858546257E0,9.746386593E0
1.953622767E0,5.099649429E-1,4.031835556E0,8.872911453E0,9.759319641E0
1.955096998E0,5.219359994E-1,4.027047157E0,8.896853447E0,9.779750879E0
1.957516152E0,5.315127969E-1,4.017470360E0,8.906430244E0,9.785043364E0
1.958825729E0,5.123591423E-1,4.012681961E0,8.911218643E0,9.786416408E0
1.961516652E0,5.267243981E-1,4.022258759E0,8.925583839E0,9.804185381E0
1.962893690E0,5.315127969E-1,4.017470360E0,8.951920509E0,9.826467053E0
1.965839537E0,5.434837937E-1,4.012681961E0,8.951920509E0,9.825165238E0
1.966992921E0,5.434837937E-1,4.000710964E0,8.954314232E0,9.822464366E0
1.969962537E0,5.291185975E-1,4.003105164E0,8.978256226E0,9.844485883E0
1.971083960E0,5.315127969E-1,4.017470360E0,8.995016098E0,9.865743183E0
1.974597379E0,5.243301988E-1,4.017470360E0,8.999804497E0,9.869724982E0
1.975705344E0,5.195417404E-1,4.005499363E0,9.016563416E0,9.879896993E0
1.978087921E0,5.099649429E-1,3.995922565E0,9.006986618E0,9.866776035E0
1.979235344E0,5.410895944E-1,3.995922565E0,9.009381294E0,9.870619353E0
1.982289575E0,5.315127969E-1,3.981557369E0,9.014169693E0,9.868665573E0
1.983317767E0,5.386953950E-1,3.976768970E0,9.014169693E0,9.867124172E0
1.986286114E0,5.530605912E-1,3.969586372E0,9.006986618E0,9.858463365E0
1.987432960E0,5.530605912E-1,3.960009575E0,9.016563416E0,9.863364927E0
1.990444883E0,5.434837937E-1,3.948038578E0,9.028534889E0,9.868983002E0
1.991559114E0,5.410895944E-1,3.928884983E0,9.045293808E0,9.876550776E0
1.994559652E0,5.243301988E-1,3.936067581E0,9.045293808E0,9.878506478E0
1.995918229E0,5.243301988E-1,3.928884983E0,9.035717010E0,9.866875963E0
1.998234306E0,5.410895944E-1,3.926490784E0,9.050082207E0,9.879984604E0
1.999677498E0,5.339069963E-1,3.921702385E0,9.035717010E0,9.864531827E0
2.002616998E0,5.291185975E-1,3.916913986E0,9.023746490E0,9.851405097E0
2.003707960E0,5.219359994E-1,3.914519787E0,9.018958092E0,9.845683694E0
2.006567690E0,5.195417404E-1,3.897760391E0,9.018958092E0,9.838905668E0
2.007802229E0,5.243301988E-1,3.883395195E0,9.011775017E0,9.826890116E0
2.010931575E0,5.243301988E-1,3.876212597E0,9.011775017E0,9.824053909E0
2.011901421E0,5.099649429E-1,3.888183594E0,9.009381294E0,9.825832647E0
2.014851267E0,5.243301988E-1,3.890577793E0,8.999804497E0,9.818757493E0
2.016266537E0,5.219359994E-1,3.890577793E0,8.990227699E0,9.809852539E0
2.018871037E0,5.147533417E-1,3.871424198E0,8.980650902E0,9.793109156E0
2.019991306E0,5.099649429E-1,3.873818398E0,8.971074104E0,9.785024466E0
2.023056152E0,5.099649429E-1,3.873818398E0,8.971074104E0,9.785024466E0
2.024097998E0,4.979939461E-1,3.869029999E0,8.980650902E0,9.791296223E0
2.027043306E0,4.955997467E-1,3.866635799E0,8.987833023E0,9.796817543E0
2.028186960E0,4.979939461E-1,3.859453201E0,8.975862503E0,9.783122439E0
2.031203806E0,4.884171486E-1,3.864241600E0,8.966285706E0,9.775745179E0
2.032292306E0,4.812345505E-1,3.861847401E0,8.959102631E0,9.767854011E0
2.035232690E0,4.716577232E-1,3.854664803E0,8.966285706E0,9.771140215E0
2.036699652E0,4.596867263E-1,3.835511208E0,8.968679428E0,9.765227534E0
2.039134383E0,4.764461517E-1,3.842693806E0,8.971074104E0,9.771052513E0
2.040425998E0,4.596867263E-1,3.845088005E0,8.978256226E0,9.777785972E0
2.043079883E0,4.381389022E-1,3.849876404E0,8.973467827E0,9.774284570E0
2.044493229E0,4.405331016E-1,3.859453201E0,8.959102631E0,9.764986860E0
2.047415344E0,4.357447028E-1,3.869029999E0,8.954314232E0,9.764169701E0
2.048556921E0,4.070142806E-1,3.866635799E0,8.956708908E0,9.764177768E0
2.051595075E0,3.854664862E-1,3.864241600E0,8.944737434E0,9.751372997E0
2.052653844E0,3.758896589E-1,3.857059002E0,8.935160637E0,9.739368192E0
2.055613960E0,3.519476354E-1,3.842693806E0,8.951920509E0,9.748181555E0
2.057057421E0,3.615244627E-1,3.847482204E0,8.935160637E0,9.735035432E0
2.059828844E0,3.615244627E-1,3.847482204E0,8.942343712E0,9.741628730E0
2.060739921E0,3.639186621E-1,3.864241600E0,8.954314232E0,9.759331089E0
2.063773613E0,3.447650373E-1,3.871424198E0,8.954314232E0,9.761482040E0
2.064853421E0,3.256114423E-1,3.869029999E0,8.944737434E0,9.751089360E0
2.067798344E0,3.256114423E-1,3.878606796E0,8.947132111E0,9.757089038E0
2.068947537E0,3.351882398E-1,3.888183594E0,8.973467827E0,9.785369061E0
2.072031421E0,3.160346150E-1,3.888183594E0,8.968679428E0,9.780340496E0
2.073081652E0,3.040636182E-1,3.895366192E0,8.966285706E0,9.780624306E0
2.075992152E0,2.968810201E-1,3.888183594E0,8.973467827E0,9.784131788E0
2.077477690E0,2.896983922E-1,3.895366192E0,8.978256226E0,9.791163760E0
2.079791652E0,2.849099934E-1,3.895366192E0,8.978256226E0,9.791023252E0
2.081143844E0,2.896983922E-1,3.902548790E0,8.987833023E0,9.802803409E0
2.084088229E0,3.016694188E-1,3.909731388E0,8.992621422E0,9.810415078E0
2.085256344E0,2.944868207E-1,3.916913986E0,8.992621422E0,9.813061586E0
2.088212075E0,2.705447972E-1,3.919308186E0,8.992621422E0,9.813328242E0
2.089372690E0,2.633621991E-1,3.940855980E0,8.990227699E0,9.819567179E0
2.092301037E0,2.729389966E-1,3.940855980E0,8.995016098E0,9.824212750E0
2.093423075E0,2.968810201E-1,3.969586372E0,8.999804497E0,9.840845253E0
2.096381190E0,2.896983922E-1,3.983951569E0,9.011775017E0,9.857377147E0
2.097823113E0,2.944868207E-1,3.976768970E0,9.009381294E0,9.852429408E0
2.100407037E0,3.016694188E-1,3.976768970E0,9.030928612E0,9.872353695E0
2.101526690E0,3.088520169E-1,3.976768970E0,9.023746490E0,9.866006372E0
2.104588575E0,3.208230138E-1,3.986345768E0,9.023746490E0,9.870252313E0
2.105610960E0,3.208230138E-1,4.003105164E0,9.028534889E0,9.881407825E0
2.108554613E0,3.280056417E-1,4.003105164E0,9.038111687E0,9.890394406E0
2.109721575E0,3.447650373E-1,4.012681961E0,9.035717010E0,9.892656941E0
2.112719344E0,3.280056417E-1,4.027047157E0,9.028534889E0,9.891366880E0
2.113810344E0,3.423708379E-1,4.039018154E0,9.040505409E0,9.907654793E0
2.116799383E0,3.519476354E-1,4.055777550E0,9.033323288E0,9.908285840E0
2.118283421E0,3.447650373E-1,4.062960148E0,9.030928612E0,9.908793049E0
2.120723190E0,3.519476354E-1,4.072536945E0,9.026140213E0,9.908614003E0
2.121930113E0,3.758896589E-1,4.079719543E0,9.021351814E0,9.908087260E0
2.124609537E0,3.806780577E-1,4.077325344E0,9.016563416E0,9.902924496E0
2.126032652E0,4.022258818E-1,4.089296341E0,9.009381294E0,9.902175596E0
2.128981575E0,4.070142806E-1,4.091690540E0,9.004592896E0,9.899004259E0
2.130097306E0,4.094084799E-1,4.098873138E0,8.997409821E0,9.895542420E0
2.133081113E0,4.094084799E-1,4.118026733E0,8.992621422E0,9.899141352E0
2.134190421E0,4.213795066E-1,4.132391930E0,8.985439301E0,9.899108201E0
2.137125921E0,4.381389022E-1,4.120420933E0,8.975862503E0,9.886148999E0
2.138586537E0,4.477157295E-1,4.110844135E0,8.980650902E0,9.886939845E0
2.141168460E0,4.429273009E-1,4.122815132E0,8.985439301E0,9.896055206E0
2.142281575E0,4.453215301E-1,4.110844135E0,8.978256226E0,9.884656576E0
2.145398690E0,4.525041282E-1,4.120420933E0,8.978256226E0,9.888969284E0
2.146379921E0,4.525041282E-1,4.132391930E0,8.975862503E0,9.891791077E0
2.149373152E0,4.548983276E-1,4.144362926E0,8.956708908E0,9.879540021E0
2.150491113E0,4.740519226E-1,4.158728123E0,8.959102631E0,9.888643222E0
2.153482921E0,4.812345505E-1,4.144362926E0,8.959102631E0,9.882957589E0
2.154571537E0,4.884171486E-1,4.139574528E0,8.949525833E0,9.872620788E0
2.157586267E0,4.955997467E-1,4.134786129E0,8.927978516E0,9.851440291E0
2.158987306E0,5.027823448E-1,4.132391930E0,8.920795441E0,9.844289941E0
2.161284498E0,5.027823448E-1,4.129997730E0,8.920795441E0,9.843285154E0
2.162670998E0,5.003881454E-1,4.149151325E0,8.911218643E0,9.842543509E0
2.165598998E0,4.836287498E-1,4.158728123E0,8.913613319E0,9.847914438E0
2.166830113E0,4.860229492E-1,4.156333923E0,8.923190117E0,9.855691343E0
2.169618344E0,4.620809257E-1,4.146757126E0,8.947132111E0,9.872197650E0
2.170887844E0,4.692635238E-1,4.144362926E0,8.956708908E0,9.880211880E0
2.173907536E0,4.668693244E-1,4.134786129E0,8.971074104E0,9.889114919E0
2.174961306E0,4.812345505E-1,4.139574528E0,8.978256226E0,9.898320505E0
2.177892306E0,4.764461517E-1,4.122815132E0,8.978256226E0,9.891091467E0
2.179317152E0,4.692635238E-1,4.120420933E0,8.980650902E0,9.891924360E0
2.181924844E0,4.740519226E-1,4.120420933E0,8.983044624E0,9.894325880E0
2.183054613E0,4.668693244E-1,4.106055737E0,8.978256226E0,9.883660533E0
2.186279460E0,4.548983276E-1,4.103661537E0,8.973467827E0,9.877757607E0
2.187138113E0,4.716577232E-1,4.106055737E0,8.966285706E0,9.873015450E0
2.190082613E0,4.572925270E-1,4.101267338E0,8.971074104E0,9.874699024E0
2.191398498E0,4.333505034E-1,4.082113743E0,8.956708908E0,9.852617913E0
2.194287036E0,4.165911078E-1,4.067748547E0,8.935160637E0,9.826353444E0
2.195348344E0,4.189853072E-1,4.062960148E0,8.927978516E0,9.817942464E0
2.198282729E0,4.381389022E-1,4.060565948E0,8.923190117E0,9.813433822E0
2.199802306E0,4.381389022E-1,4.055777550E0,8.925583839E0,9.813630526E0
2.202158460E0,4.309563041E-1,4.055777550E0,8.913613319E0,9.802426091E0
2.203444806E0,4.285621047E-1,4.048594952E0,8.916007042E0,9.801528867E0
2.206135921E0,4.333505034E-1,4.041412354E0,8.908824921E0,9.792240190E0
2.207550883E0,4.309563041E-1,4.022258759E0,8.911218643E0,9.786424606E0
2.210487383E0,4.309563041E-1,4.010287762E0,8.906430244E0,9.777148407E0
2.211640460E0,4.405331016E-1,3.998316765E0,8.899248123E0,9.766126332E0
2.214647152E0,4.405331016E-1,3.988739967E0,8.904036522E0,9.766574749E0
2.215741113E0,4.501099288E-1,3.976768970E0,8.908824921E0,9.766496396E0
2.219236724E0,4.453215301E-1,3.979163170E0,8.908824921E0,9.767252032E0
2.220353075E0,4.309563041E-1,3.981557369E0,8.923190117E0,9.780687311E0
2.222745460E0,4.189853072E-1,3.969586372E0,8.927978516E0,9.779671008E0
2.223859152E0,4.261679053E-1,3.974374771E0,8.930372238E0,9.784110701E0
2.226891306E0,4.261679053E-1,3.986345768E0,8.904036522E0,9.764959705E0
2.227969806E0,4.213795066E-1,3.971980572E0,8.894459724E0,9.750159185E0
2.230888960E0,4.429273009E-1,3.971980572E0,8.908824921E0,9.764219156E0
2.232049883E0,4.381389022E-1,3.983951569E0,8.916007042E0,9.775429268E0
2.235064960E0,4.118026793E-1,3.993528366E0,8.913613319E0,9.776009036E0
2.236144344E0,3.998316824E-1,3.991134167E0,8.923190117E0,9.783268328E0
2.239119729E0,4.070142806E-1,4.000710964E0,8.925583839E0,9.789657589E0
2.240589498E0,4.022258818E-1,3.991134167E0,8.920795441E0,9.781182387E0
2.242966998E0,3.782838583E-1,4.007893562E0,8.925583839E0,9.791443017E0
2.244275460E0,3.782838583E-1,4.017470360E0,8.904036522E0,9.775736962E0
2.247186767E0,3.974374831E-1,4.017470360E0,8.911218643E0,9.783038503E0
2.248358921E0,3.950432837E-1,4.029441357E0,8.916007042E0,9.792223364E0
2.251223267E0,3.974374831E-1,4.019864559E0,8.918401718E0,9.790564684E0
2.252436383E0,3.998316824E-1,4.012681961E0,8.932766914E0,9.800806428E0
2.255503421E0,4.189853072E-1,4.034229755E0,8.937555313E0,9.814807863E0
2.256528883E0,4.165911078E-1,4.029441357E0,8.925583839E0,9.801836189E0
2.259485883E0,3.950432837E-1,4.019864559E0,8.916007042E0,9.788286461E0
2.260889460E0,3.830722570E-1,4.024652958E0,8.911218643E0,9.785417390E0
2.263520459E0,3.878606856E-1,4.043806553E0,8.896853447E0,9.780429878E0
2.264625575E0,4.070142806E-1,4.058171749E0,8.896853447E0,9.787155860E0
2.267654036E0,3.998316824E-1,4.046200752E0,8.911218643E0,9.794969301E0
2.268812613E0,3.950432837E-1,4.034229755E0,8.911218643E0,9.789835883E0
2.271666729E0,4.165911078E-1,4.060565948E0,8.906430244E0,9.797256946E0
2.272820806E0,4.357447028E-1,4.060565948E0,8.892065048E0,9.785033985E0
2.275853421E0,4.357447028E-1,4.060565948E0,8.889671326E0,9.782858761E0
2.276899267E0,4.381389022E-1,4.074931145E0,8.894459724E0,9.793285624E0
2.279859883E0,4.357447028E-1,4.060565948E0,8.892065048E0,9.785033985E0
2.281468844E0,4.333505034E-1,4.053383350E0,8.889671326E0,9.779773286E0
2.283789959E0,4.381389022E-1,4.046200752E0,8.877699852E0,9.766128244E0
2.285084113E0,4.501099288E-1,4.053383350E0,8.887276649E0,9.778353736E0
2.287785883E0,4.453215301E-1,4.053383350E0,8.887276649E0,9.778134489E0
2.289385383E0,4.548983276E-1,4.060565948E0,8.889671326E0,9.783730607E0
2.292052729E0,4.668693244E-1,4.058171749E0,8.892065048E0,9.785476265E0
2.293210652E0,4.836287498E-1,4.065354347E0,8.913613319E0,9.808848309E0
2.296194844E0,4.740519226E-1,4.079719543E0,8.913613319E0,9.814343543E0
2.297294690E0,4.548983276E-1,4.082113743E0,8.908824921E0,9.810083922E0
2.300219921E0,4.548983276E-1,4.070142746E0,8.916007042E0,9.811634728E0
2.301749883E0,4.596867263E-1,4.072536945E0,8.930372238E0,9.825905422E0
2.304257229E0,4.596867263E-1,4.084507942E0,8.932766914E0,9.833048447E0
2.305456690E0,4.572925270E-1,4.089296341E0,8.923190117E0,9.826229332E0
2.308444498E0,4.620809257E-1,4.094084740E0,8.927978516E0,9.832794568E0
2.309492306E0,4.692635238E-1,4.089296341E0,8.927978516E0,9.831142009E0
2.312515190E0,4.884171486E-1,4.103661537E0,8.939949036E0,9.848922686E0
2.313581267E0,5.027823448E-1,4.086902142E0,8.937555313E0,9.840500708E0
2.316565767E0,4.836287498E-1,4.089296341E0,8.944737434E0,9.847058906E0
2.317669421E0,4.716577232E-1,4.101267338E0,8.951920509E0,9.857978271E0
2.320714113E0,4.716577232E-1,4.110844135E0,8.951920509E0,9.861966402E0
2.322068190E0,4.525041282E-1,4.108449936E0,8.961497307E0,9.868766632E0
2.324385036E0,4.620809257E-1,4.103661537E0,8.963891029E0,9.869392037E0
2.325867152E0,4.644751251E-1,4.103661537E0,8.954314232E0,9.860807194E0
2.328740883E0,4.716577232E-1,4.110844135E0,8.959102631E0,9.868486229E0
2.329955844E0,4.764461517E-1,4.103661537E0,8.954314232E0,9.861378317E0
2.332715536E0,4.788403511E-1,4.096478939E0,8.959102631E0,9.862856976E0
2.334030036E0,4.860229492E-1,4.098873138E0,8.949525833E0,9.855505667E0
2.337017459E0,4.764461517E-1,4.110844135E0,8.954314232E0,9.864369407E0
2.338077229E0,4.692635238E-1,4.125209332E0,8.949525833E0,9.865676506E0
2.341030806E0,4.692635238E-1,4.127603531E0,8.944737434E0,9.862334761E0
2.342455959E0,4.788403511E-1,4.113238335E0,8.927978516E0,9.841586155E0
2.345032613E0,4.716577232E-1,4.103661537E0,8.930372238E0,9.839412957E0
2.346173075E0,4.788403511E-1,4.096478939E0,8.927978516E0,9.834593441E0
2.349194806E0,4.788403511E-1,4.098873138E0,8.916007042E0,9.824725475E0
2.350320190E0,4.716577232E-1,4.108449936E0,8.911218643E0,9.824033774E0
2.353169190E0,4.692635238E-1,4.110844135E0,8.908824921E0,9.822749576E0
2.354363036E0,4.620809257E-1,4.113238335E0,8.920795441E0,9.834268640E0
2.357392806E0,4.644751251E-1,4.098873138E0,8.904036522E0,9.813173010E0
2.358442267E0,4.644751251E-1,4.106055737E0,8.901641846E0,9.814003179E0
2.361503459E0,4.668693244E-1,4.098873138E0,8.896853447E0,9.806769561E0
2.362846152E0,4.644751251E-1,4.094084740E0,8.892065048E0,9.800310598E0
2.365231152E0,4.836287498E-1,4.091690540E0,8.896853447E0,9.804582067E0
2.366525652E0,4.788403511E-1,4.082113743E0,8.896853447E0,9.800354175E0
2.369219267E0,4.692635238E-1,4.096478939E0,8.884882927E0,9.795023868E0
2.370698998E0,4.668693244E-1,4.098873138E0,8.892065048E0,9.802425659E0
2.373581729E0,4.740519226E-1,4.108449936E0,8.901641846E0,9.815462987E0
2.374738882E0,4.836287498E-1,4.089296341E0,8.894459724E0,9.801410874E0
2.377699690E0,4.764461517E-1,4.074931145E0,8.899248123E0,9.799422530E0
2.378789498E0,4.764461517E-1,4.086902142E0,8.899248123E0,9.804406520E0
2.381723844E0,4.668693244E-1,4.082113743E0,8.887276649E0,9.791082975E0
2.383194152E0,4.548983276E-1,4.074931145E0,8.899248123E0,9.798398516E0
2.385759344E0,4.620809257E-1,4.072536945E0,8.916007042E0,9.812963748E0
2.386908806E0,4.596867263E-1,4.074931145E0,8.932766914E0,9.829074243E0
2.389920421E0,4.548983276E-1,4.077325344E0,8.927978516E0,9.825493109E0
2.390985344E0,4.548983276E-1,4.079719543E0,8.927978516E0,9.826486881E0
2.393977652E0,4.740519226E-1,4.091690540E0,8.932766914E0,9.836715989E0
2.395101882E0,4.668693244E-1,4.098873138E0,8.935160637E0,9.841535631E0
2.398092498E0,4.501099288E-1,4.086902142E0,8.932766914E0,9.833600196E0
2.399239382E0,4.501099288E-1,4.101267338E0,8.937555313E0,9.843926437E0
2.402104152E0,4.668693244E-1,4.082113743E0,8.923190117E0,9.823692862E0
2.403597421E0,4.644751251E-1,4.089296341E0,8.927978516E0,9.830914611E0
2.405886075E0,4.764461517E-1,4.079719543E0,8.932766914E0,9.831858280E0
2.407396844E0,4.525041282E-1,4.091690540E0,8.925583839E0,9.829177908E0
2.410180575E0,4.644751251E-1,4.103661537E0,8.923190117E0,9.832552925E0
2.411376306E0,4.572925270E-1,4.101267338E0,8.925583839E0,9.833389909E0
2.414205382E0,4.501099288E-1,4.096478939E0,8.925583839E0,9.831062278E0
2.415471075E0,4.429273009E-1,4.094084740E0,8.918401718E0,9.823217582E0
2.418423729E0,4.405331016E-1,4.086902142E0,8.913613319E0,9.815770012E0
2.419543306E0,4.501099288E-1,4.091690540E0,8.911218643E0,9.816025068E0
2.422508806E0,4.429273009E-1,4.096478939E0,8.923190117E0,9.828562772E0
2.423904921E0,4.525041282E-1,4.098873138E0,8.923190117E0,9.829997093E0
2.426507806E0,4.525041282E-1,4.106055737E0,8.913613319E0,9.824304357E0
2.427633229E0,4.453215301E-1,4.127603531E0,8.889671326E0,9.811303606E0
2.430653421E0,4.501099288E-1,4.125209332E0,8.887276649E0,9.808345285E0
2.432050575E0,4.477157295E-1,4.122815132E0,8.894459724E0,9.813738726E0
2.434765229E0,4.740519226E-1,4.108449936E0,8.892065048E0,9.806778621E0
2.435822690E0,4.668693244E-1,4.113238335E0,8.884882927E0,9.801930483E0
2.438880498E0,4.453215301E-1,4.108449936E0,8.875306129E0,9.790236516E0
2.439947306E0,4.429273009E-1,4.103661537E0,8.856152534E0,9.770755361E0
2.442890998E0,4.333505034E-1,4.120420933E0,8.848969460E0,9.770871088E0
2.444354613E0,4.333505034E-1,4.118026733E0,8.839392662E0,9.761188425E0
2.446758575E0,4.357447028E-1,4.125209332E0,8.844181061E0,9.768662350E0
2.448039306E0,4.309563041E-1,4.127603531E0,8.844181061E0,9.769461238E0
2.450784882E0,4.453215301E-1,4.134786129E0,8.829815865E0,9.760144251E0
2.452141575E0,4.405331016E-1,4.125209332E0,8.832210541E0,9.758041016E0
2.455080767E0,4.357447028E-1,4.137180328E0,8.834604263E0,9.765058474E0
2.456242113E0,4.453215301E-1,4.137180328E0,8.839392662E0,9.769822668E0
2.459193959E0,4.572925270E-1,4.129997730E0,8.836998940E0,9.765170145E0
2.460382998E0,4.716577232E-1,4.132391930E0,8.834604263E0,9.764699512E0
2.463826339E0,4.740519226E-1,4.146757126E0,8.832210541E0,9.768739065E0
2.464947613E0,4.668693244E-1,4.137180328E0,8.834604263E0,9.766496840E0
2.467313652E0,4.668693244E-1,4.149151325E0,8.834604263E0,9.771573884E0
2.468437113E0,4.788403511E-1,4.151545525E0,8.846575737E0,9.783993080E0
2.471571344E0,4.860229492E-1,4.161122322E0,8.858546257E0,9.799234617E0
2.472565690E0,4.955997467E-1,4.161122322E0,8.856152534E0,9.797550500E0
2.475494382E0,4.884171486E-1,4.153939724E0,8.856152534E0,9.794141323E0
2.476645959E0,4.764461517E-1,4.132391930E0,8.844181061E0,9.773597221E0
2.479982575E0,4.692635238E-1,4.146757126E0,8.841787338E0,9.777167599E0
2.480749229E0,4.812345505E-1,4.144362926E0,8.834604263E0,9.770238648E0
2.483788536E0,4.692635238E-1,4.153939724E0,8.829815865E0,9.769394643E0
2.485354536E0,4.788403511E-1,4.161122322E0,8.827422142E0,9.770752721E0
2.487524344E0,4.955997467E-1,4.141968727E0,8.832210541E0,9.767776977E0
2.488847882E0,5.051765442E-1,4.141968727E0,8.839392662E0,9.774761936E0
2.492045805E0,4.955997467E-1,4.156333923E0,8.844181061E0,9.784695674E0
2.492945229E0,5.147533417E-1,4.137180328E0,8.851364136E0,9.784062507E0
2.495811998E0,5.147533417E-1,4.151545525E0,8.836998940E0,9.777159685E0
2.497084652E0,5.075707436E-1,4.158728123E0,8.832210541E0,9.775509741E0
2.500159152E0,5.147533417E-1,4.156333923E0,8.839392662E0,9.781357028E0
2.501112229E0,5.123591423E-1,4.139574528E0,8.841787338E0,9.776287255E0
2.504087344E0,5.171475410E-1,4.129997730E0,8.844181061E0,9.774654033E0
2.505574652E0,5.386953950E-1,4.139574528E0,8.839392662E0,9.775537460E0
2.508097498E0,5.243301988E-1,4.149151325E0,8.832210541E0,9.772324284E0
2.509230536E0,5.291185975E-1,4.149151325E0,8.841787338E0,9.781238497E0
2.512278690E0,5.339069963E-1,4.153939724E0,8.846575737E0,9.787858508E0
2.513400844E0,5.482721925E-1,4.149151325E0,8.846575737E0,9.786621551E0
2.516255882E0,5.386953950E-1,4.149151325E0,8.834604263E0,9.775268893E0
2.517404844E0,5.410895944E-1,4.151545525E0,8.853757858E0,9.793729443E0
2.520489729E0,5.171475410E-1,4.168305397E0,8.870517731E0,9.814697972E0
2.521516998E0,5.003881454E-1,4.177882195E0,8.880094528E0,9.826554165E0
2.524454152E0,4.955997467E-1,4.168305397E0,8.870517731E0,9.813586185E0
2.525935075E0,5.003881454E-1,4.161122322E0,8.877699852E0,9.817274670E0
2.528318998E0,5.051765442E-1,4.139574528E0,8.877699852E0,9.808406357E0
2.529645113E0,5.219359994E-1,4.151545525E0,8.875306129E0,9.812176431E0
2.532295767E0,5.171475410E-1,4.156333923E0,8.880094528E0,9.818280506E0
2.533715036E0,5.075707436E-1,4.151545525E0,8.882488251E0,9.817920138E0
2.536652152E0,5.075707436E-1,4.161122322E0,8.901641846E0,9.839298480E0
2.537800613E0,5.075707436E-1,4.170699596E0,8.901641846E0,9.843352616E0
2.540783998E0,5.003881454E-1,4.175487995E0,8.894459724E0,9.838521336E0
2.541899959E0,4.932055473E-1,4.153939724E0,8.908824921E0,9.842033754E0
2.544817767E0,4.908113480E-1,4.165910721E0,8.916007042E0,9.853470936E0
2.546271652E0,4.908113480E-1,4.156333923E0,8.913613319E0,9.847259003E0
2.548856229E0,4.836287498E-1,4.144362926E0,8.906430244E0,9.835351571E0
2.549978805E0,4.932055473E-1,4.141968727E0,8.911218643E0,9.839155165E0
2.553003267E0,4.908113480E-1,4.144362926E0,8.918401718E0,9.846549094E0
2.554188075E0,4.884171486E-1,4.151545525E0,8.923190117E0,9.853791322E0
2.557089729E0,4.788403511E-1,4.134786129E0,8.942343712E0,9.863632975E0
2.558152229E0,4.716577232E-1,4.141968727E0,8.930372238E0,9.855450992E0
2.561167613E0,4.764461517E-1,4.137180328E0,8.935160637E0,9.858009820E0
2.562245805E0,4.764461517E-1,4.146757126E0,8.956708908E0,9.881560103E0
2.565199421E0,4.740519226E-1,4.149151325E0,8.939949036E0,9.867262574E0
2.566678075E0,4.764461517E-1,4.134786129E0,8.932766914E0,9.854835464E0
2.568991882E0,4.596867263E-1,4.134786129E0,8.925583839E0,9.847528375E0
2.570424690E0,4.692635238E-1,4.139574528E0,8.935160637E0,9.858670353E0
2.573401652E0,4.788403511E-1,4.141968727E0,8.911218643E0,9.838445544E0
2.574472805E0,4.812345505E-1,4.137180328E0,8.906430244E0,9.832209694E0
2.577385113E0,4.692635238E-1,4.163516521E0,8.923190117E0,9.857910526E0
2.578563767E0,4.716577232E-1,4.153939724E0,8.913613319E0,9.845312521E0
2.581566498E0,4.453215301E-1,4.158728123E0,8.923190117E0,9.854778167E0
2.582637036E0,4.429273009E-1,4.158728123E0,8.927978516E0,9.859006267E0
2.585577575E0,4.501099288E-1,4.161122322E0,8.920795441E0,9.853838299E0
2.586993959E0,4.596867263E-1,4.156333923E0,8.923190117E0,9.854427707E0
2.589594536E0,4.692635238E-1,4.146757126E0,8.918401718E0,9.846506595E0
2.590716075E0,4.477157295E-1,4.137180328E0,8.942343712E0,9.863175022E0
2.593736959E0,4.429273009E-1,4.163516521E0,8.947132111E0,9.878371699E0
2.595096344E0,4.477157295E-1,4.180276394E0,8.939949036E0,9.879162356E0
2.597767113E0,4.501099288E-1,4.182670593E0,8.937555313E0,9.878118607E0
2.598927382E0,4.620809257E-1,4.153939724E0,8.930372238E0,9.860034601E0
2.601920305E0,4.644751251E-1,4.168305397E0,8.935160637E0,9.870542165E0
2.603000459E0,4.692635238E-1,4.170699596E0,8.939949036E0,9.876114223E0
2.605965421E0,4.620809257E-1,4.165910721E0,8.935160637E0,9.869418753E0
2.607438767E0,4.812345505E-1,4.185064793E0,8.925583839E0,9.869772079E0
2.609823921E0,4.884171486E-1,4.187458992E0,8.937555313E0,9.881966358E0
2.611129190E0,4.860229492E-1,4.185064793E0,8.930372238E0,9.874337139E0
2.613812998E0,4.884171486E-1,4.189853191E0,8.911218643E0,9.859170289E0
2.615213152E0,4.812345505E-1,4.192247391E0,8.916007042E0,9.864162734E0
2.618535344E0,4.716577232E-1,4.185064793E0,8.918401718E0,9.862814889E0
2.619318305E0,4.812345505E-1,4.168305397E0,8.916007042E0,9.854011272E0
2.622340305E0,4.955997467E-1,4.182670593E0,8.911218643E0,9.856478586E0
2.623412344E0,4.740519226E-1,4.187458992E0,8.901641846E0,9.848795134E0
2.626341190E0,4.836287498E-1,4.197035789E0,8.904036522E0,9.855499610E0
2.627805536E0,5.003881454E-1,4.201824188E0,8.904036522E0,9.858376194E0
2.630370421E0,4.884171486E-1,4.197035789E0,8.904036522E0,9.855735747E0
2.631485690E0,4.908113480E-1,4.199429989E0,8.901641846E0,9.854711338E0
2.634559536E0,4.716577232E-1,4.197035789E0,8.894459724E0,9.846267527E0
2.635633459E0,4.548983276E-1,4.192247391E0,8.870517731E0,9.821810194E0
2.638519844E0,4.477157295E-1,4.189853191E0,8.865729332E0,9.816133441E0
2.639717536E0,4.572925270E-1,4.192247391E0,8.868123055E0,9.819758711E0
2.642698421E0,4.596867263E-1,4.204218388E0,8.872911453E0,9.829309324E0
2.643829305E0,4.525041282E-1,4.201824188E0,8.853757858E0,9.810663316E0
2.646737190E0,4.548983276E-1,4.204218388E0,8.851364136E0,9.809639739E0
2.648259613E0,4.620809257E-1,4.209006786E0,8.841787338E0,9.803390242E0
2.650629152E0,4.620809257E-1,4.187458992E0,8.832210541E0,9.785513509E0
2.652273652E0,4.716577232E-1,4.170699596E0,8.817844391E0,9.765837180E0
2.654815305E0,4.596867263E-1,4.156333923E0,8.808267593E0,9.750487248E0
2.656009652E0,4.764461517E-1,4.144362926E0,8.817844391E0,9.754851342E0
2.658835882E0,4.668693244E-1,4.175487995E0,8.827422142E0,9.776300355E0
2.660090882E0,4.525041282E-1,4.180276394E0,8.825027466E0,9.775509219E0
2.663114690E0,4.548983276E-1,4.187458992E0,8.827422142E0,9.780855125E0
2.664151767E0,4.572925270E-1,4.192247391E0,8.825027466E0,9.780857039E0
2.667108882E0,4.381389022E-1,4.209006786E0,8.836998940E0,9.797971937E0
2.668526998E0,4.357447028E-1,4.209006786E0,8.839392662E0,9.800024194E0
2.671124267E0,4.501099288E-1,4.194641590E0,8.820239067E0,9.777230396E0
2.672248228E0,4.812345505E-1,4.182670593E0,8.815450668E0,9.769262535E0
2.675277421E0,4.836287498E-1,4.187458992E0,8.815450668E0,9.771431833E0
2.676383613E0,4.740519226E-1,4.192247391E0,8.815450668E0,9.773015599E0
2.679305228E0,4.788403511E-1,4.192247391E0,8.801085472E0,9.760293631E0
2.680473459E0,4.836287498E-1,4.197035789E0,8.817844391E0,9.777698394E0
2.683567575E0,4.884171486E-1,4.187458992E0,8.820239067E0,9.775990043E0
2.684563152E0,5.051765442E-1,4.170699596E0,8.834604263E0,9.782646419E0
2.687550767E0,5.051765442E-1,4.177882195E0,8.822632790E0,9.774904210E0
2.688971036E0,5.003881454E-1,4.180276394E0,8.820239067E0,9.773521178E0
2.691657459E0,4.908113480E-1,4.163516521E0,8.822632790E0,9.768040486E0
2.692651036E0,4.979939461E-1,4.168305397E0,8.832210541E0,9.779095607E0
2.695322882E0,5.027823448E-1,4.168305397E0,8.836998940E0,9.783665480E0
2.696744651E0,5.075707436E-1,4.173093796E0,8.836998940E0,9.785953717E0
2.699702267E0,5.123591423E-1,4.177882195E0,8.834604263E0,9.786084202E0
2.700925998E0,5.099649429E-1,4.185064793E0,8.853757858E0,9.806317340E0
2.704010305E0,5.195417404E-1,4.194641590E0,8.853757858E0,9.810910758E0
2.704939690E0,5.171475410E-1,4.185064793E0,8.860940933E0,9.813179053E0
2.708435261E0,5.147533417E-1,4.175487995E0,8.863334656E0,9.811135114E0
2.709563767E0,5.219359994E-1,4.197035789E0,8.863334656E0,9.820704039E0
2.711934728E0,5.315127969E-1,4.206612587E0,8.856152534E0,9.818835625E0
2.713074459E0,5.051765442E-1,4.206612587E0,8.846575737E0,9.808807016E0
2.716117728E0,4.836287498E-1,4.209006786E0,8.851364136E0,9.813066899E0
2.717176305E0,4.764461517E-1,4.199429989E0,8.839392662E0,9.797809745E0
2.720103844E0,4.860229492E-1,4.201824188E0,8.820239067E0,9.782032612E0
2.721349075E0,4.955997467E-1,4.206612587E0,8.817844391E0,9.782412191E0
2.724332036E0,4.955997467E-1,4.189853191E0,8.810662270E0,9.768738839E0
2.725472536E0,4.955997467E-1,4.189853191E0,8.805873871E0,9.764420285E0
2.728286382E0,4.692635238E-1,4.194641590E0,8.801085472E0,9.760857125E0
2.729765959E0,4.836287498E-1,4.180276394E0,8.796297073E0,9.751074284E0
2.732058305E0,4.836287498E-1,4.177882195E0,8.781931877E0,9.737090114E0
2.733489267E0,4.908113480E-1,4.187458992E0,8.762778282E0,9.724299040E0
2.736401151E0,4.955997467E-1,4.187458992E0,8.769960403E0,9.731014202E0
2.737536651E0,4.884171486E-1,4.201824188E0,8.760383606E0,9.728216627E0
2.740387190E0,4.955997467E-1,4.204218388E0,8.750806808E0,9.720992293E0
2.741637959E0,4.812345505E-1,4.209006786E0,8.738836288E0,9.711569621E0
2.744693651E0,4.788403511E-1,4.209006786E0,8.724471092E0,9.698526798E0
2.745741344E0,4.836287498E-1,4.213795185E0,8.736441612E0,9.711610509E0
2.748746959E0,4.908113480E-1,4.213795185E0,8.729259491E0,9.705510646E0
2.750126228E0,4.860229492E-1,4.206612587E0,8.741230011E0,9.712924887E0
2.752709613E0,4.836287498E-1,4.206612587E0,8.734047890E0,9.706342193E0
2.753888728E0,4.884171486E-1,4.216189384E0,8.741230011E0,9.717196424E0
2.756868382E0,5.003881454E-1,4.211400986E0,8.760383606E0,9.732964989E0
2.757921998E0,4.979939461E-1,4.225766182E0,8.772355080E0,9.749836483E0
2.760841575E0,5.051765442E-1,4.216189384E0,8.796297073E0,9.767614779E0
2.762000267E0,5.099649429E-1,4.194641590E0,8.820239067E0,9.780168685E0
2.765025498E0,5.291185975E-1,4.201824188E0,8.856152534E0,9.816655781E0
2.766163536E0,5.291185975E-1,4.201824188E0,8.882488251E0,9.840421257E0
2.769079344E0,5.315127969E-1,4.209006786E0,8.889671326E0,9.850101535E0
2.770551151E0,5.195417404E-1,4.197035789E0,8.896853447E0,9.850839269E0
2.772895228E0,5.339069963E-1,4.189853191E0,8.908824921E0,9.859365492E0
2.774199459E0,5.410895944E-1,4.194641590E0,8.920795441E0,9.872607929E0
2.777024767E0,5.219359994E-1,4.199429989E0,8.968679428E0,9.916896697E0
2.778327882E0,5.363011956E-1,4.194641590E0,8.990227699E0,9.935131158E0
2.781234190E0,5.147533417E-1,4.177882195E0,9.023746490E0,9.957292371E0
2.782382421E0,5.219359994E-1,4.189853191E0,9.040505409E0,9.977876779E0
2.785362805E0,5.195417404E-1,4.197035789E0,9.066842079E0,1.000463184E1
2.786471536E0,5.099649429E-1,4.187458992E0,9.095572472E0,1.002618151E1
2.789436344E0,5.123591423E-1,4.185064793E0,9.145850182E0,1.007094111E1
2.790875267E0,4.932055473E-1,4.192247391E0,9.157821655E0,1.008384289E1
2.793471767E0,4.932055473E-1,4.206612587E0,9.179368973E0,1.010938455E1
2.794558421E0,4.932055473E-1,4.211400986E0,9.172186852E0,1.010485832E1
2.797630075E0,5.027823448E-1,4.197035789E0,9.165003777E0,1.009282883E1
2.798659382E0,5.003881454E-1,4.180276394E0,9.153033257E0,1.007487552E1
2.801597305E0,4.812345505E-1,4.187458992E0,9.121908188E0,1.004866202E1
2.802751690E0,4.908113480E-1,4.197035789E0,9.078812599E0,1.001403233E1
2.805767074E0,4.955997467E-1,4.201824188E0,9.059659004E0,9.998918286E0
2.806877574E0,4.836287498E-1,4.194641590E0,9.023746490E0,9.962776499E0
2.809813805E0,4.788403511E-1,4.177882195E0,8.968679428E0,9.905614489E0
2.811255113E0,4.716577232E-1,4.175487995E0,8.951920509E0,9.889087006E0
2.813566267E0,4.453215301E-1,4.173093796E0,8.904036522E0,9.843520177E0
2.814944921E0,4.357447028E-1,4.182670593E0,8.856152534E0,9.803879051E0
2.817866574E0,4.381389022E-1,4.185064793E0,8.810662270E0,9.763938890E0
2.819032036E0,4.525041282E-1,4.199429989E0,8.805873871E0,9.766441872E0
2.821924613E0,4.429273009E-1,4.187458992E0,8.779537201E0,9.737107931E0
2.823137728E0,4.357447028E-1,4.170699596E0,8.755595207E0,9.707989287E0
2.826166844E0,4.453215301E-1,4.175487995E0,8.731653214E0,9.688899788E0
2.827229613E0,4.596867263E-1,4.156333923E0,8.714894295E0,9.666219847E0
2.830155382E0,4.764461517E-1,4.158728123E0,8.705317497E0,9.659429241E0
2.831572536E0,4.692635238E-1,4.173093796E0,8.683769226E0,9.645867926E0
2.834181074E0,4.644751251E-1,4.180276394E0,8.671798706E0,9.637973888E0
2.835413728E0,4.788403511E-1,4.187458992E0,8.640673637E0,9.613809952E0
2.838343690E0,4.979939461E-1,4.168305397E0,8.628703117E0,9.595690978E0
2.839434305E0,5.075707436E-1,4.165910721E0,8.626308441E0,9.592999401E0
2.842342074E0,5.171475410E-1,4.170699596E0,8.643068314E0,9.610661089E0
2.843502882E0,5.363011956E-1,4.165910721E0,8.650250435E0,9.616093994E0
2.846519921E0,5.243301988E-1,4.170699596E0,8.645462036E0,9.613202957E0
2.847642151E0,5.291185975E-1,4.168305397E0,8.640673637E0,9.608120382E0
2.850576267E0,5.339069963E-1,4.151545525E0,8.657433510E0,9.616212451E0
2.852005690E0,5.291185975E-1,4.173093796E0,8.683769226E0,9.648965037E0
2.854387459E0,5.339069963E-1,4.185064793E0,8.705317497E0,9.673798464E0
2.855711959E0,5.291185975E-1,4.177882195E0,8.729259491E0,9.691988309E0
2.858385536E0,5.506663918E-1,4.185064793E0,8.750806808E0,9.715689404E0
2.859821382E0,5.482721925E-1,4.180276394E0,8.779537201E0,9.739383276E0
2.862757959E0,5.554547906E-1,4.177882195E0,8.789113998E0,9.747397321E0
2.863900113E0,5.291185975E-1,4.197035789E0,8.808267593E0,9.771420260E0
2.866859959E0,5.243301988E-1,4.199429989E0,8.825027466E0,9.787300147E0
2.867988459E0,5.267243981E-1,4.192247391E0,8.841787338E0,9.799468359E0
2.870932459E0,5.219359994E-1,4.192247391E0,8.858546257E0,9.814336308E0
2.872387536E0,5.195417404E-1,4.201824188E0,8.887276649E0,9.844233661E0
2.874950382E0,5.219359994E-1,4.204218388E0,8.901641846E0,9.858351636E0
2.876078613E0,5.267243981E-1,4.201824188E0,8.906430244E0,9.861909795E0
2.879098921E0,5.171475410E-1,4.216189384E0,8.920795441E0,9.880500281E0
2.880178651E0,5.147533417E-1,4.223371983E0,8.944737434E0,9.905057783E0
2.883146536E0,5.147533417E-1,4.230554581E0,8.944737434E0,9.908122468E0
2.884273113E0,5.003881454E-1,4.220977783E0,8.947132111E0,9.905463883E0
2.887305305E0,4.812345505E-1,4.220977783E0,8.942343712E0,9.900189453E0
2.888369459E0,5.003881454E-1,4.244919777E0,8.951920509E0,9.920010737E0
2.891322344E0,5.003881454E-1,4.247313976E0,8.959102631E0,9.927516520E0
2.892785459E0,4.836287498E-1,4.230554581E0,8.951920509E0,9.913040383E0
2.895086074E0,4.836287498E-1,4.240131378E0,8.966285706E0,9.930100212E0
2.896490998E0,4.812345505E-1,4.237737179E0,8.975862503E0,9.937610918E0
2.899415305E0,4.501099288E-1,4.218583584E0,8.983044624E0,9.934492293E0
2.900580421E0,4.525041282E-1,4.204218388E0,8.975862503E0,9.922011888E0
2.903435036E0,4.668693244E-1,4.213795185E0,8.987833023E0,9.937564052E0
2.904669728E0,4.644751251E-1,4.206612587E0,8.978256226E0,9.925744881E0
2.907631113E0,4.620809257E-1,4.213795185E0,8.980650902E0,9.930844841E0
2.908756959E0,4.764461517E-1,4.213795185E0,8.978256226E0,9.929358270E0
2.911681497E0,4.836287498E-1,4.218583584E0,8.973467827E0,9.927409988E0
2.913100421E0,4.884171486E-1,4.213795185E0,8.966285706E0,9.919117931E0
2.915698536E0,5.171475410E-1,4.204218388E0,8.961497307E0,9.912180780E0
2.916827613E0,5.099649429E-1,4.213795185E0,8.961497307E0,9.915874550E0
2.919861997E0,5.075707436E-1,4.211400986E0,8.961497307E0,9.914734505E0
2.920932228E0,5.147533417E-1,4.213795185E0,8.944737434E0,9.900978166E0
2.923883036E0,5.171475410E-1,4.209006786E0,8.942343712E0,9.896903090E0
2.925029651E0,5.171475410E-1,4.209006786E0,8.937555313E0,9.892576746E0
2.928048844E0,5.315127969E-1,4.204218388E0,8.932766914E0,9.886975415E0
2.929122459E0,5.291185975E-1,4.223371983E0,8.925583839E0,9.888522856E0
2.932058267E0,5.363011956E-1,4.213795185E0,8.916007042E0,9.876176912E0
2.933545421E0,5.339069963E-1,4.220977783E0,8.904036522E0,9.868311736E0
2.935915459E0,5.267243981E-1,4.206612587E0,8.880094528E0,9.840178193E0
2.937264344E0,5.099649429E-1,4.220977783E0,8.860940933E0,9.828173376E0
2.939912228E0,5.075707436E-1,4.237737179E0,8.868123055E0,9.841730080E0
2.941358921E0,5.243301988E-1,4.244919777E0,8.841787338E0,9.821989076E0
2.944241767E0,5.291185975E-1,4.242525578E0,8.820239067E0,9.801816514E0
2.945415305E0,5.291185975E-1,4.237737179E0,8.813055992E0,9.793280288E0
2.948365882E0,5.267243981E-1,4.230554581E0,8.813055992E0,9.790045279E0
2.949495882E0,5.147533417E-1,4.216189384E0,8.808267593E0,9.778895742E0
2.953020875E0,5.219359994E-1,4.213795185E0,8.791508675E0,9.763150712E0
2.954113805E0,5.027823448E-1,4.240131378E0,8.810662270E0,9.790774935E0
2.956506228E0,5.075707436E-1,4.242525578E0,8.813055992E0,9.794212947E0
2.957637190E0,5.003881454E-1,4.249708176E0,8.805873871E0,9.790496540E0
2.960708536E0,4.955997467E-1,4.252102375E0,8.808267593E0,9.793445344E0
2.961741113E0,4.955997467E-1,4.259284973E0,8.801085472E0,9.790108941E0
2.964742959E0,4.716577232E-1,4.240131378E0,8.793902397E0,9.774144182E0
2.965868921E0,4.955997467E-1,4.242525578E0,8.801085472E0,9.782829237E0
2.968891344E0,4.932055473E-1,4.242525578E0,8.815450668E0,9.795634001E0
2.970025382E0,4.788403511E-1,4.249708176E0,8.853757858E0,9.832514219E0
2.972867036E0,4.860229492E-1,4.264073372E0,8.820239067E0,9.808932522E0
2.974346267E0,4.884171486E-1,4.252102375E0,8.817844391E0,9.801699119E0
2.976636421E0,4.812345505E-1,4.252102375E0,8.822632790E0,9.805651974E0
2.978020959E0,4.860229492E-1,4.242525578E0,8.813055992E0,9.793119907E0
2.980936690E0,4.812345505E-1,4.230554581E0,8.803479195E0,9.779080973E0
2.982114767E0,4.836287498E-1,4.235342979E0,8.810662270E0,9.787737049E0
2.984969959E0,4.668693244E-1,4.230554581E0,8.815450668E0,9.789163882E0
2.986243651E0,4.644751251E-1,4.218583584E0,8.832210541E0,9.798986051E0
2.989391267E0,4.525041282E-1,4.225766182E0,8.841787338E0,9.810151026E0
2.990306728E0,4.572925270E-1,4.228160381E0,8.848969460E0,9.817877426E0
2.993250305E0,4.620809257E-1,4.232948780E0,8.870517731E0,9.839586321E0
2.994679959E0,4.644751251E-1,4.213795185E0,8.858546257E0,9.820674559E0
2.997272382E0,4.596867263E-1,4.211400986E0,8.853757858E0,9.815102565E0
2.998402921E0,4.525041282E-1,4.223371983E0,8.872911453E0,9.837183974E0
3.001415113E0,4.548983276E-1,4.225766182E0,8.868123055E0,9.834004211E0
3.002493382E0,4.501099288E-1,4.220977783E0,8.863334656E0,9.827408286E0
3.005436074E0,4.429273009E-1,4.216189384E0,8.872911453E0,9.833666416E0
3.006684305E0,4.429273009E-1,4.220977783E0,8.884882927E0,9.846521348E0
3.009688228E0,4.453215301E-1,4.232948780E0,8.896853447E0,9.862563962E0
3.010725728E0,4.429273009E-1,4.230554581E0,8.894459724E0,9.859269265E0
3.013618651E0,4.381389022E-1,4.223371983E0,8.887276649E0,9.849493532E0
3.015107728E0,4.429273009E-1,4.223371983E0,8.880094528E0,9.843227841E0
3.017564651E0,4.501099288E-1,4.228160381E0,8.892065048E0,9.856407052E0
3.018793113E0,4.525041282E-1,4.225766182E0,8.889671326E0,9.853330203E0
3.021480536E0,4.668693244E-1,4.206612587E0,8.884882927E0,9.841478601E0
3.022880305E0,4.716577232E-1,4.211400986E0,8.880094528E0,9.839432814E0
3.025829036E0,4.740519226E-1,4.211400986E0,8.877699852E0,9.837386754E0
3.027045036E0,4.764461517E-1,4.223371983E0,8.889671326E0,9.853432301E0
3.029950882E0,4.860229492E-1,4.218583584E0,8.892065048E0,9.854008656E0
3.031077344E0,4.955997467E-1,4.230554581E0,8.884882927E0,9.853139388E0
3.034011536E0,5.003881454E-1,4.225766182E0,8.889671326E0,9.855645306E0
3.035466190E0,4.932055473E-1,4.228160381E0,8.872911453E0,9.841196552E0
3.038036805E0,4.884171486E-1,4.232948780E0,8.870517731E0,9.840858270E0
3.039179613E0,4.932055473E-1,4.230554581E0,8.868123055E0,9.837908837E0
3.042180074E0,4.812345505E-1,4.211400986E0,8.868123055E0,9.829094132E0
3.043249420E0,4.812345505E-1,4.232948780E0,8.870517731E0,9.840504402E0
3.046199690E0,5.123591423E-1,4.230554581E0,8.870517731E0,9.841046121E0
3.047389228E0,5.147533417E-1,4.240131378E0,8.868123055E0,9.843134237E0
3.050366959E0,5.123591423E-1,4.244919777E0,8.868123055E0,9.845072997E0
3.051455497E0,5.243301988E-1,4.235342979E0,8.877699852E0,9.850208474E0
3.054397728E0,5.339069963E-1,4.230554581E0,8.884882927E0,9.855140454E0
3.055867382E0,5.291185975E-1,4.242525578E0,8.892065048E0,9.866499409E0
3.058182074E0,5.554547906E-1,4.244919777E0,8.880094528E0,9.858192165E0
3.059566997E0,5.410895944E-1,4.252102375E0,8.848969460E0,9.832467292E0
3.062461920E0,5.410895944E-1,4.256890774E0,8.839392662E0,9.825922839E0
3.063640113E0,5.650315881E-1,4.266467571E0,8.839392662E0,9.831422525E0
3.066487228E0,5.554547906E-1,4.276044369E0,8.846575737E0,9.841493166E0
3.067738151E0,5.482721925E-1,4.273650169E0,8.853757858E0,9.846507827E0
3.070737536E0,5.626373887E-1,4.280832767E0,8.846575737E0,9.843982542E0
3.071836036E0,5.458779931E-1,4.290409565E0,8.853757858E0,9.853660499E0
3.074768651E0,5.363011956E-1,4.280832767E0,8.875306129E0,9.868343683E0
3.076196805E0,5.386953950E-1,4.273650169E0,8.877699852E0,9.867514031E0
3.078839997E0,5.291185975E-1,4.276044369E0,8.892065048E0,9.880958595E0
3.079920151E0,5.267243981E-1,4.280832767E0,8.892065048E0,9.882903854E0
3.082950036E0,5.267243981E-1,4.290409565E0,8.887276649E0,9.882749570E0
3.084025151E0,5.195417404E-1,4.307168961E0,8.896853447E0,9.898263955E0
3.086956997E0,4.932055473E-1,4.295197964E0,8.884882927E0,9.880947418E0
3.088119228E0,5.075707436E-1,4.278438568E0,8.880094528E0,9.870093387E0
3.091136767E0,5.051765442E-1,4.276044369E0,8.868123055E0,9.858162369E0
3.092238651E0,5.051765442E-1,4.264073372E0,8.848969460E0,9.835740214E0
3.095155959E0,4.955997467E-1,4.278438568E0,8.841787338E0,9.835032233E0
3.096631036E0,4.955997467E-1,4.285621166E0,8.839392662E0,9.836006838E0
3.099045151E0,5.075707436E-1,4.280832767E0,8.834604263E0,9.830228366E0
3.100324267E0,5.051765442E-1,4.288015366E0,8.820239067E0,9.820330764E0
3.103000113E0,4.932055473E-1,4.276044369E0,8.810662270E0,9.805895002E0
3.104407690E0,4.908113480E-1,4.276044369E0,8.791508675E0,9.788568639E0
3.107333728E0,4.836287498E-1,4.271255970E0,8.760383606E0,9.758168130E0
3.108494305E0,4.860229492E-1,4.280832767E0,8.746018410E0,9.749594120E0
3.111462997E0,4.740519226E-1,4.268861771E0,8.746018410E0,9.743754105E0
3.112583767E0,4.764461517E-1,4.261679173E0,8.748413086E0,9.742876466E0
3.115530344E0,4.620809257E-1,4.252102375E0,8.738836288E0,9.729396336E0
3.116989882E0,4.764461517E-1,4.252102375E0,8.743624687E0,9.734389976E0
3.119558651E0,4.764461517E-1,4.261679173E0,8.738836288E0,9.734278092E0
3.120689959E0,4.932055473E-1,4.259284973E0,8.726864815E0,9.723318862E0
3.123750613E0,4.955997467E-1,4.240131378E0,8.748413086E0,9.734426780E0
3.124782651E0,4.884171486E-1,4.225766182E0,8.757989883E0,9.736428397E0
3.127711267E0,5.410895944E-1,4.228160381E0,8.779537201E0,9.759630711E0
3.128919920E0,5.410895944E-1,4.228160381E0,8.781931877E0,9.761784962E0
3.131915497E0,5.363011956E-1,4.228160381E0,8.779537201E0,9.759366406E0
3.133028267E0,5.386953950E-1,4.232948780E0,8.777143478E0,9.759420871E0
3.135934920E0,5.363011956E-1,4.223371983E0,8.777143478E0,9.755139031E0
3.137529959E0,5.291185975E-1,4.206612587E0,8.779537201E0,9.749657912E0
3.139691805E0,5.530605912E-1,4.201824188E0,8.810662270E0,9.776961295E0
3.141083228E0,5.458779931E-1,4.209006786E0,8.820239067E0,9.788275543E0
3.143995343E0,5.482721925E-1,4.216189384E0,8.839392662E0,9.808757208E0
3.145168074E0,5.386953950E-1,4.216189384E0,8.846575737E0,9.814700603E0
3.148020267E0,5.434837937E-1,4.216189384E0,8.851364136E0,9.819280759E0
3.149284920E0,5.410895944E-1,4.216189384E0,8.846575737E0,9.814832303E0
3.152328574E0,5.291185975E-1,4.209006786E0,8.851364136E0,9.815413984E0
3.153389805E0,5.219359994E-1,4.201824188E0,8.870517731E0,9.829233363E0
3.156308382E0,5.243301988E-1,4.199429989E0,8.870517731E0,9.828337560E0
3.157734459E0,5.291185975E-1,4.213795185E0,8.860940933E0,9.826103530E0
3.160377959E0,5.219359994E-1,4.201824188E0,8.853757858E0,9.814110857E0
3.161471574E0,5.339069963E-1,4.206612587E0,8.856152534E0,9.818965518E0
3.164496843E0,5.315127969E-1,4.228160381E0,8.853757858E0,9.825928672E0
3.165561728E0,5.243301988E-1,4.216189384E0,8.856152534E0,9.822556327E0
3.168505767E0,5.219359994E-1,4.216189384E0,8.863334656E0,9.828904890E0
3.169647536E0,5.291185975E-1,4.206612587E0,8.865729332E0,9.827345142E0
3.172678805E0,5.339069963E-1,4.185064793E0,8.865729332E0,9.818400103E0
3.173764305E0,5.243301988E-1,4.192247391E0,8.868123055E0,9.823108818E0
3.176681420E0,5.291185975E-1,4.201824188E0,8.875306129E0,9.833938778E0
3.178150074E0,5.315127969E-1,4.197035789E0,8.870517731E0,9.827700651E0
3.180589228E0,5.243301988E-1,4.199429989E0,8.875306129E0,9.832659522E0
3.181848382E0,5.315127969E-1,4.204218388E0,8.877699852E0,9.837251281E0
3.184535843E0,5.315127969E-1,4.204218388E0,8.899248123E0,9.856702048E0
3.185944343E0,5.195417404E-1,4.194641590E0,8.884882927E0,9.839008401E0
3.188876190E0,5.243301988E-1,4.220977783E0,8.877699852E0,9.844040343E0
3.190038382E0,5.243301988E-1,4.211400986E0,8.877699852E0,9.839937758E0
3.193090882E0,5.315127969E-1,4.220977783E0,8.875306129E0,9.842266923E0
3.194155343E0,5.386953950E-1,4.223371983E0,8.877699852E0,9.845842691E0
3.197654990E0,5.530605912E-1,4.230554581E0,8.882488251E0,9.854038035E0
3.198755190E0,5.482721925E-1,4.237737179E0,8.887276649E0,9.861171585E0
3.201374382E0,5.363011956E-1,4.230554581E0,8.872911453E0,9.844479097E0
3.202263074E0,5.434837937E-1,4.232948780E0,8.870517731E0,9.843744959E0
3.205792567E0,5.482721925E-1,4.232948780E0,8.865729332E0,9.839695847E0
3.206467497E0,5.291185975E-1,4.235342979E0,8.875306129E0,9.848307242E0
3.209643074E0,5.291185975E-1,4.242525578E0,8.877699852E0,9.853554913E0
3.210497420E0,5.027823448E-1,4.254496574E0,8.880094528E0,9.859493396E0
3.213477420E0,5.051765442E-1,4.266467571E0,8.880094528E0,9.864787261E0
3.214597343E0,5.147533417E-1,4.261679173E0,8.875306129E0,9.858901524E0
3.217503382E0,5.027823448E-1,4.290409565E0,8.868123055E0,9.864279539E0
3.218986613E0,4.979939461E-1,4.292803764E0,8.863334656E0,9.860773973E0
3.221274843E0,4.884171486E-1,4.280832767E0,8.856152534E0,9.848630271E0
3.222661228E0,4.860229492E-1,4.276044369E0,8.851364136E0,9.842124812E0
3.225583997E0,4.668693244E-1,4.280832767E0,8.865729332E0,9.856198696E0
3.226798113E0,4.716577232E-1,4.297592163E0,8.851364136E0,9.850807402E0
3.229607690E0,4.812345505E-1,4.297592163E0,8.836998940E0,9.838365482E0
3.230878228E0,5.003881454E-1,4.292803764E0,8.817844391E0,9.820027096E0
3.233900843E0,4.955997467E-1,4.288015366E0,8.825027466E0,9.824143966E0
3.234952882E0,4.908113480E-1,4.288015366E0,8.834604263E0,9.832507516E0
3.237884459E0,4.836287498E-1,4.273650169E0,8.832210541E0,9.823742951E0
3.239324382E0,4.884171486E-1,4.273650169E0,8.820239067E0,9.813218345E0
3.241906613E0,4.908113480E-1,4.273650169E0,8.810662270E0,9.804731061E0
3.243107651E0,4.908113480E-1,4.273650169E0,8.808267593E0,9.802579229E0
3.246074420E0,4.884171486E-1,4.268861771E0,8.813055992E0,9.804676846E0
3.247156190E0,4.932055473E-1,4.266467571E0,8.808267593E0,9.799570156E0
3.250106728E0,4.979939461E-1,4.268861771E0,8.808267593E0,9.800854901E0
3.251264920E0,4.932055473E-1,4.273650169E0,8.810662270E0,9.804851203E0
3.254262805E0,4.788403511E-1,4.276044369E0,8.808267593E0,9.803031242E0
3.255355266E0,4.836287498E-1,4.273650169E0,8.817844391E0,9.810828825E0
3.258296613E0,4.836287498E-1,4.280832767E0,8.813055992E0,9.809657582E0
3.259744497E0,4.836287498E-1,4.276044369E0,8.810662270E0,9.805417984E0
3.262187228E0,4.860229492E-1,4.271255970E0,8.803479195E0,9.796994019E0
3.263460151E0,4.884171486E-1,4.254496574E0,8.820239067E0,9.804892127E0
3.266148497E0,4.932055473E-1,4.247313976E0,8.817844391E0,9.799862623E0
3.267538459E0,5.147533417E-1,4.242525578E0,8.813055992E0,9.794587801E0
3.270555959E0,5.147533417E-1,4.252102375E0,8.810662270E0,9.796586918E0
3.271687305E0,5.003881454E-1,4.254496574E0,8.829815865E0,9.814111147E0
3.274660266E0,5.051765442E-1,4.244919777E0,8.846575737E0,9.825296409E0
3.275737459E0,4.979939461E-1,4.240131378E0,8.839392662E0,9.816393162E0
3.278657882E0,5.051765442E-1,4.242525578E0,8.834604263E0,9.813483536E0
3.280114190E0,5.051765442E-1,4.249708176E0,8.846575737E0,9.827366137E0
3.282678190E0,5.123591423E-1,4.235342979E0,8.848969460E0,9.823690882E0
3.283803036E0,5.003881454E-1,4.232948780E0,8.841787338E0,9.815571660E0
3.286865382E0,4.788403511E-1,4.223371983E0,8.851364136E0,9.819002294E0
3.287901228E0,4.860229492E-1,4.228160381E0,8.839392662E0,9.810627969E0
3.290869843E0,4.812345505E-1,4.223371983E0,8.836998940E0,9.806171927E0
3.292052882E0,5.051765442E-1,4.223371983E0,8.848969460E0,9.818163512E0
3.295002651E0,4.955997467E-1,4.216189384E0,8.844181061E0,9.810270673E0
3.296088997E0,5.003881454E-1,4.211400986E0,8.863334656E0,9.825730903E0
3.299242305E0,4.908113480E-1,4.209006786E0,8.865729332E0,9.826382371E0
3.300528459E0,4.955997467E-1,4.218583584E0,8.875306129E0,9.839366110E0
3.302838690E0,5.051765442E-1,4.206612587E0,8.875306129E0,9.834726823E0
3.304202343E0,5.051765442E-1,4.206612587E0,8.860940933E0,9.821764965E0
3.307130190E0,4.932055473E-1,4.204218388E0,8.858546257E0,9.817970552E0
3.308282536E0,4.860229492E-1,4.209006786E0,8.851364136E0,9.813185186E0
3.311127766E0,4.884171486E-1,4.216189384E0,8.875306129E0,9.837980643E0
3.312384651E0,4.908113480E-1,4.216189384E0,8.882488251E0,9.844579535E0
3.315417266E0,5.027823448E-1,4.199429989E0,8.872911453E0,9.829372308E0
3.316467343E0,5.171475410E-1,4.213795185E0,8.863334656E0,9.827624976E0
3.319413459E0,5.099649429E-1,4.206612587E0,8.865729332E0,9.826332494E0
3.320824420E0,5.003881454E-1,4.206612587E0,8.868123055E0,9.828000013E0
3.323423728E0,5.075707436E-1,4.211400986E0,8.865729332E0,9.828259404E0
3.324551613E0,4.908113480E-1,4.211400986E0,8.860940933E0,9.823088530E0
3.327574343E0,4.908113480E-1,4.204218388E0,8.858546257E0,9.817850570E0
3.328656113E0,4.692635238E-1,4.223371983E0,8.865729332E0,9.831492041E0
3.331602843E0,4.620809257E-1,4.213795185E0,8.875306129E0,9.835682362E0
3.332802113E0,4.644751251E-1,4.211400986E0,8.880094528E0,9.839091128E0
3.335758536E0,4.548983276E-1,4.220977783E0,8.877699852E0,9.840586395E0
3.336845074E0,4.836287498E-1,4.213795185E0,8.872911453E0,9.834557656E0
3.339809343E0,4.955997467E-1,4.230554581E0,8.863334656E0,9.833713052E0
3.341267882E0,4.884171486E-1,4.237737179E0,8.858546257E0,9.832131483E0
3.343638228E0,4.788403511E-1,4.223371983E0,8.856152534E0,9.823319027E0
3.344969574E0,4.788403511E-1,4.220977783E0,8.844181061E0,9.811497346E0
3.347639459E0,4.764461517E-1,4.218583584E0,8.841787338E0,9.808193092E0
3.349067997E0,4.908113480E-1,4.220977783E0,8.858546257E0,9.825038983E0
3.352066113E0,4.955997467E-1,4.242525578E0,8.841787338E0,9.819462598E0
3.353209266E0,4.812345505E-1,4.223371983E0,8.846575737E0,9.814803099E0
3.356101651E0,4.740519226E-1,4.223371983E0,8.841787338E0,9.810137586E0
3.357232305E0,4.788403511E-1,4.223371983E0,8.839392662E0,9.808211948E0
3.360189805E0,4.908113480E-1,4.216189384E0,8.829815865E0,9.797081040E0
3.361625843E0,4.908113480E-1,4.218583584E0,8.822632790E0,9.791638912E0
3.364212805E0,4.979939461E-1,4.223371983E0,8.817844391E0,9.789752222E0
3.365383574E0,5.267243981E-1,4.247313976E0,8.813055992E0,9.797299144E0
3.368343574E0,5.243301988E-1,4.247313976E0,8.817844391E0,9.801478351E0
3.369438997E0,5.219359994E-1,4.244919777E0,8.817844391E0,9.800313301E0
3.372357651E0,5.075707436E-1,4.240131378E0,8.803479195E0,9.784558656E0
3.373525882E0,5.147533417E-1,4.230554581E0,8.815450668E0,9.791564408E0
3.376523536E0,5.147533417E-1,4.228160381E0,8.810662270E0,9.786218925E0
3.377604459E0,5.171475410E-1,4.240131378E0,8.805873871E0,9.787214635E0
3.380544382E0,5.243301988E-1,4.252102375E0,8.808267593E0,9.794941284E0
3.382075536E0,5.339069963E-1,4.247313976E0,8.810662270E0,9.795534816E0
3.384350959E0,5.410895944E-1,4.242525578E0,8.813055992E0,9.796007204E0
3.385697189E0,5.554547906E-1,4.232948780E0,8.801085472E0,9.781896078E0
3.388605689E0,5.458779931E-1,4.242525578E0,8.793902397E0,9.779045221E0
3.389818036E0,5.458779931E-1,4.237737179E0,8.796297073E0,9.779122731E0
3.392639266E0,5.530605912E-1,4.244919777E0,8.798690796E0,9.784793286E0
3.393920305E0,5.554547906E-1,4.252102375E0,8.796297073E0,9.785895301E0
3.396851959E0,5.578489900E-1,4.244919777E0,8.798690796E0,9.785065106E0
3.397980920E0,5.722141862E-1,4.259284973E0,8.793902397E0,9.787832085E0
3.400918920E0,5.578489900E-1,4.256890774E0,8.808267593E0,9.798872004E0
3.402347420E0,5.530605912E-1,4.235342979E0,8.801085472E0,9.782796720E0
3.404943766E0,5.674257874E-1,4.240131378E0,8.805873871E0,9.790000039E0
3.406070805E0,5.698199868E-1,4.249708176E0,8.801085472E0,9.789985694E0
3.409097882E0,5.530605912E-1,4.244919777E0,8.822632790E0,9.806328022E0
3.410186920E0,5.434837937E-1,4.249708176E0,8.822632790E0,9.807866412E0
3.413119651E0,5.386953950E-1,4.242525578E0,8.829815865E0,9.810956335E0
3.414273305E0,5.458779931E-1,4.266467571E0,8.829815865E0,9.821729813E0
3.417288036E0,5.482721925E-1,4.276044369E0,8.846575737E0,9.841090392E0
3.418367036E0,5.267243981E-1,4.271255970E0,8.851364136E0,9.842139667E0
3.421346420E0,5.363011956E-1,4.266467571E0,8.853757858E0,9.842732990E0
3.422767574E0,5.482721925E-1,4.252102375E0,8.839392662E0,9.824247535E0
3.425157805E0,5.506663918E-1,4.249708176E0,8.851364136E0,9.834119184E0
3.426457074E0,5.363011956E-1,4.249708176E0,8.858546257E0,9.839790665E0
3.429148074E0,5.386953950E-1,4.242525578E0,8.868123055E0,9.845446791E0
3.430560536E0,5.291185975E-1,4.259284973E0,8.875306129E0,9.858627382E0
